id,uniqueid,pid,datetime,trial_id,which_item,resp,correct,rt,age,gender,race,income,employed,edu,dad_edu,mom_edu,confidence,puzzles,prev_test,max_trials
1,i090615,945980,1662485419178,0,1,5,1,15538,20,Female,White,5000-11999,Yes,SomeColl,GradHS,BachelorDegree,18,Yes,No,36
1,i090615,945980,1662485453446,1,2,1,1,34268,20,Female,White,5000-11999,Yes,SomeColl,GradHS,BachelorDegree,18,Yes,No,36
1,i090615,945980,1662485463501,2,3,7,1,10055,20,Female,White,5000-11999,Yes,SomeColl,GradHS,BachelorDegree,18,Yes,No,36
1,i090615,945980,1662485469868,3,4,4,1,6367,20,Female,White,5000-11999,Yes,SomeColl,GradHS,BachelorDegree,18,Yes,No,36
1,i090615,945980,1662485499608,4,5,7,0,29740,20,Female,White,5000-11999,Yes,SomeColl,GradHS,BachelorDegree,18,Yes,No,36
1,i090615,945980,1662485523680,5,6,1,1,24072,20,Female,White,5000-11999,Yes,SomeColl,GradHS,BachelorDegree,18,Yes,No,36
1,i090615,945980,1662485534531,6,7,2,0,10851,20,Female,White,5000-11999,Yes,SomeColl,GradHS,BachelorDegree,18,Yes,No,36
1,i090615,945980,1662485551556,7,8,2,0,17025,20,Female,White,5000-11999,Yes,SomeColl,GradHS,BachelorDegree,18,Yes,No,36
1,i090615,945980,1662485559651,8,9,8,1,8095,20,Female,White,5000-11999,Yes,SomeColl,GradHS,BachelorDegree,18,Yes,No,36
1,i090615,945980,1662485568163,9,10,7,0,8512,20,Female,White,5000-11999,Yes,SomeColl,GradHS,BachelorDegree,18,Yes,No,36
1,i090615,945980,1662485579384,10,11,5,1,11221,20,Female,White,5000-11999,Yes,SomeColl,GradHS,BachelorDegree,18,Yes,No,36
1,i090615,945980,1662485593608,11,12,6,1,14224,20,Female,White,5000-11999,Yes,SomeColl,GradHS,BachelorDegree,18,Yes,No,36
1,i090615,945980,1662485611961,12,13,2,1,18352,20,Female,White,5000-11999,Yes,SomeColl,GradHS,BachelorDegree,18,Yes,No,36
1,i090615,945980,1662485638763,13,14,1,1,26802,20,Female,White,5000-11999,Yes,SomeColl,GradHS,BachelorDegree,18,Yes,No,36
1,i090615,945980,1662485659541,14,15,2,1,20778,20,Female,White,5000-11999,Yes,SomeColl,GradHS,BachelorDegree,18,Yes,No,36
1,i090615,945980,1662485672008,15,16,4,1,12467,20,Female,White,5000-11999,Yes,SomeColl,GradHS,BachelorDegree,18,Yes,No,36
1,i090615,945980,1662485698641,16,17,3,0,26633,20,Female,White,5000-11999,Yes,SomeColl,GradHS,BachelorDegree,18,Yes,No,36
1,i090615,945980,1662485743800,17,18,7,1,45159,20,Female,White,5000-11999,Yes,SomeColl,GradHS,BachelorDegree,18,Yes,No,36
1,i090615,945980,1662485764855,18,19,3,1,21055,20,Female,White,5000-11999,Yes,SomeColl,GradHS,BachelorDegree,18,Yes,No,36
1,i090615,945980,1662485785691,19,20,7,0,20836,20,Female,White,5000-11999,Yes,SomeColl,GradHS,BachelorDegree,18,Yes,No,36
1,i090615,945980,1662485802108,20,21,8,1,16417,20,Female,White,5000-11999,Yes,SomeColl,GradHS,BachelorDegree,18,Yes,No,36
1,i090615,945980,1662485822050,21,22,5,0,19942,20,Female,White,5000-11999,Yes,SomeColl,GradHS,BachelorDegree,18,Yes,No,36
1,i090615,945980,1662485858240,22,23,4,0,36190,20,Female,White,5000-11999,Yes,SomeColl,GradHS,BachelorDegree,18,Yes,No,36
1,i090615,945980,1662485901310,23,24,1,0,43070,20,Female,White,5000-11999,Yes,SomeColl,GradHS,BachelorDegree,18,Yes,No,36
1,i090615,945980,1662485922345,24,25,1,0,21035,20,Female,White,5000-11999,Yes,SomeColl,GradHS,BachelorDegree,18,Yes,No,36
1,i090615,945980,1662485970496,25,26,8,0,48151,20,Female,White,5000-11999,Yes,SomeColl,GradHS,BachelorDegree,18,Yes,No,36
1,i090615,945980,1662485993207,26,27,8,0,22711,20,Female,White,5000-11999,Yes,SomeColl,GradHS,BachelorDegree,18,Yes,No,36
1,i090615,945980,1662486007398,27,28,3,0,14190,20,Female,White,5000-11999,Yes,SomeColl,GradHS,BachelorDegree,18,Yes,No,36
1,i090615,945980,1662486021658,28,29,2,0,14260,20,Female,White,5000-11999,Yes,SomeColl,GradHS,BachelorDegree,18,Yes,No,36
1,i090615,945980,1662486039636,29,30,1,0,17978,20,Female,White,5000-11999,Yes,SomeColl,GradHS,BachelorDegree,18,Yes,No,36
1,i090615,945980,1662486077094,30,31,4,1,37458,20,Female,White,5000-11999,Yes,SomeColl,GradHS,BachelorDegree,18,Yes,No,36
1,i090615,945980,1662486111654,31,32,1,0,34560,20,Female,White,5000-11999,Yes,SomeColl,GradHS,BachelorDegree,18,Yes,No,36
1,i090615,945980,1662486140792,32,33,8,0,29138,20,Female,White,5000-11999,Yes,SomeColl,GradHS,BachelorDegree,18,Yes,No,36
1,i090615,945980,1662486231056,33,34,2,0,90264,20,Female,White,5000-11999,Yes,SomeColl,GradHS,BachelorDegree,18,Yes,No,36
1,i090615,945980,1662486269562,34,35,1,0,38506,20,Female,White,5000-11999,Yes,SomeColl,GradHS,BachelorDegree,18,Yes,No,36
1,i090615,945980,1662486297916,35,36,4,0,28353,20,Female,White,5000-11999,Yes,SomeColl,GradHS,BachelorDegree,18,Yes,No,36
2,f788558,593875,1662485837636,0,1,5,1,16539,34,Female,Black or African American,75000-99999,Yes,BachelorDegree,GradHS,GradHS,10,Yes,No,36
2,f788558,593875,1662485867331,1,2,1,1,29695,34,Female,Black or African American,75000-99999,Yes,BachelorDegree,GradHS,GradHS,10,Yes,No,36
2,f788558,593875,1662485895466,2,3,7,1,28135,34,Female,Black or African American,75000-99999,Yes,BachelorDegree,GradHS,GradHS,10,Yes,No,36
2,f788558,593875,1662485921903,3,4,4,1,26437,34,Female,Black or African American,75000-99999,Yes,BachelorDegree,GradHS,GradHS,10,Yes,No,36
2,f788558,593875,1662485938772,4,5,3,1,16869,34,Female,Black or African American,75000-99999,Yes,BachelorDegree,GradHS,GradHS,10,Yes,No,36
2,f788558,593875,1662485956091,5,6,1,1,17318,34,Female,Black or African American,75000-99999,Yes,BachelorDegree,GradHS,GradHS,10,Yes,No,36
2,f788558,593875,1662485981010,6,7,6,1,24919,34,Female,Black or African American,75000-99999,Yes,BachelorDegree,GradHS,GradHS,10,Yes,No,36
2,f788558,593875,1662486015792,7,8,1,1,34782,34,Female,Black or African American,75000-99999,Yes,BachelorDegree,GradHS,GradHS,10,Yes,No,36
2,f788558,593875,1662486037058,8,9,8,1,21266,34,Female,Black or African American,75000-99999,Yes,BachelorDegree,GradHS,GradHS,10,Yes,No,36
2,f788558,593875,1662486070373,9,10,4,1,33315,34,Female,Black or African American,75000-99999,Yes,BachelorDegree,GradHS,GradHS,10,Yes,No,36
2,f788558,593875,1662486100719,10,11,5,1,30346,34,Female,Black or African American,75000-99999,Yes,BachelorDegree,GradHS,GradHS,10,Yes,No,36
2,f788558,593875,1662486127225,11,12,6,1,26506,34,Female,Black or African American,75000-99999,Yes,BachelorDegree,GradHS,GradHS,10,Yes,No,36
2,f788558,593875,1662486185900,12,13,2,1,58674,34,Female,Black or African American,75000-99999,Yes,BachelorDegree,GradHS,GradHS,10,Yes,No,36
2,f788558,593875,1662486218296,13,14,1,1,32395,34,Female,Black or African American,75000-99999,Yes,BachelorDegree,GradHS,GradHS,10,Yes,No,36
2,f788558,593875,1662486252778,14,15,2,1,34482,34,Female,Black or African American,75000-99999,Yes,BachelorDegree,GradHS,GradHS,10,Yes,No,36
2,f788558,593875,1662486288213,15,16,4,1,35435,34,Female,Black or African American,75000-99999,Yes,BachelorDegree,GradHS,GradHS,10,Yes,No,36
2,f788558,593875,1662486340366,16,17,6,1,52153,34,Female,Black or African American,75000-99999,Yes,BachelorDegree,GradHS,GradHS,10,Yes,No,36
2,f788558,593875,1662486381526,17,18,7,1,41160,34,Female,Black or African American,75000-99999,Yes,BachelorDegree,GradHS,GradHS,10,Yes,No,36
2,f788558,593875,1662486458919,18,19,3,1,77393,34,Female,Black or African American,75000-99999,Yes,BachelorDegree,GradHS,GradHS,10,Yes,No,36
2,f788558,593875,1662486653193,19,20,8,1,194274,34,Female,Black or African American,75000-99999,Yes,BachelorDegree,GradHS,GradHS,10,Yes,No,36
2,f788558,593875,1662486723831,20,21,8,1,70638,34,Female,Black or African American,75000-99999,Yes,BachelorDegree,GradHS,GradHS,10,Yes,No,36
2,f788558,593875,1662487039498,21,22,5,0,315667,34,Female,Black or African American,75000-99999,Yes,BachelorDegree,GradHS,GradHS,10,Yes,No,36
2,f788558,593875,1662487166134,22,23,8,0,126635,34,Female,Black or African American,75000-99999,Yes,BachelorDegree,GradHS,GradHS,10,Yes,No,36
2,f788558,593875,1662487231641,23,24,3,1,65507,34,Female,Black or African American,75000-99999,Yes,BachelorDegree,GradHS,GradHS,10,Yes,No,36
2,f788558,593875,1662487334827,24,25,4,0,103185,34,Female,Black or African American,75000-99999,Yes,BachelorDegree,GradHS,GradHS,10,Yes,No,36
2,f788558,593875,1662487492808,25,26,2,1,157981,34,Female,Black or African American,75000-99999,Yes,BachelorDegree,GradHS,GradHS,10,Yes,No,36
2,f788558,593875,1662487520772,26,27,7,1,27964,34,Female,Black or African American,75000-99999,Yes,BachelorDegree,GradHS,GradHS,10,Yes,No,36
2,f788558,593875,1662487625725,27,28,2,0,104952,34,Female,Black or African American,75000-99999,Yes,BachelorDegree,GradHS,GradHS,10,Yes,No,36
2,f788558,593875,1662487703697,28,29,3,0,77972,34,Female,Black or African American,75000-99999,Yes,BachelorDegree,GradHS,GradHS,10,Yes,No,36
2,f788558,593875,1662487767381,29,30,2,0,63684,34,Female,Black or African American,75000-99999,Yes,BachelorDegree,GradHS,GradHS,10,Yes,No,36
2,f788558,593875,1662487817706,30,31,2,0,50324,34,Female,Black or African American,75000-99999,Yes,BachelorDegree,GradHS,GradHS,10,Yes,No,36
2,f788558,593875,1662487897363,31,32,7,0,79657,34,Female,Black or African American,75000-99999,Yes,BachelorDegree,GradHS,GradHS,10,Yes,No,36
2,f788558,593875,1662487966921,32,33,4,0,69558,34,Female,Black or African American,75000-99999,Yes,BachelorDegree,GradHS,GradHS,10,Yes,No,36
2,f788558,593875,1662488022744,33,34,1,1,55823,34,Female,Black or African American,75000-99999,Yes,BachelorDegree,GradHS,GradHS,10,Yes,No,36
2,f788558,593875,1662488053755,34,35,1,0,31011,34,Female,Black or African American,75000-99999,Yes,BachelorDegree,GradHS,GradHS,10,Yes,No,36
2,f788558,593875,1662488169770,35,36,8,0,116015,34,Female,Black or African American,75000-99999,Yes,BachelorDegree,GradHS,GradHS,10,Yes,No,36
3,b110375,631356,1662485963327,0,1,7,0,15478,29,Male,Black or African American,100000+,Yes,BachelorDegree,BachelorDegree,BachelorDegree,30,Yes,No,36
3,b110375,631356,1662485988773,1,2,1,1,25446,29,Male,Black or African American,100000+,Yes,BachelorDegree,BachelorDegree,BachelorDegree,30,Yes,No,36
3,b110375,631356,1662486012545,2,3,7,1,23771,29,Male,Black or African American,100000+,Yes,BachelorDegree,BachelorDegree,BachelorDegree,30,Yes,No,36
3,b110375,631356,1662486040984,3,4,4,1,28439,29,Male,Black or African American,100000+,Yes,BachelorDegree,BachelorDegree,BachelorDegree,30,Yes,No,36
3,b110375,631356,1662486066978,4,5,3,1,25994,29,Male,Black or African American,100000+,Yes,BachelorDegree,BachelorDegree,BachelorDegree,30,Yes,No,36
3,b110375,631356,1662486101713,5,6,7,0,34735,29,Male,Black or African American,100000+,Yes,BachelorDegree,BachelorDegree,BachelorDegree,30,Yes,No,36
3,b110375,631356,1662486147825,6,7,3,0,46112,29,Male,Black or African American,100000+,Yes,BachelorDegree,BachelorDegree,BachelorDegree,30,Yes,No,36
3,b110375,631356,1662486170439,7,8,4,0,22614,29,Male,Black or African American,100000+,Yes,BachelorDegree,BachelorDegree,BachelorDegree,30,Yes,No,36
3,b110375,631356,1662486230217,8,9,1,0,59777,29,Male,Black or African American,100000+,Yes,BachelorDegree,BachelorDegree,BachelorDegree,30,Yes,No,36
3,b110375,631356,1662486273444,9,10,4,1,43227,29,Male,Black or African American,100000+,Yes,BachelorDegree,BachelorDegree,BachelorDegree,30,Yes,No,36
3,b110375,631356,1662486309765,10,11,5,1,36320,29,Male,Black or African American,100000+,Yes,BachelorDegree,BachelorDegree,BachelorDegree,30,Yes,No,36
3,b110375,631356,1662486353356,11,12,6,1,43591,29,Male,Black or African American,100000+,Yes,BachelorDegree,BachelorDegree,BachelorDegree,30,Yes,No,36
3,b110375,631356,1662486371560,12,13,5,0,18204,29,Male,Black or African American,100000+,Yes,BachelorDegree,BachelorDegree,BachelorDegree,30,Yes,No,36
3,b110375,631356,1662486426932,13,14,1,1,55371,29,Male,Black or African American,100000+,Yes,BachelorDegree,BachelorDegree,BachelorDegree,30,Yes,No,36
3,b110375,631356,1662486452575,14,15,2,1,25643,29,Male,Black or African American,100000+,Yes,BachelorDegree,BachelorDegree,BachelorDegree,30,Yes,No,36
3,b110375,631356,1662486488090,15,16,3,0,35515,29,Male,Black or African American,100000+,Yes,BachelorDegree,BachelorDegree,BachelorDegree,30,Yes,No,36
3,b110375,631356,1662486518506,16,17,6,1,30416,29,Male,Black or African American,100000+,Yes,BachelorDegree,BachelorDegree,BachelorDegree,30,Yes,No,36
3,b110375,631356,1662486546547,17,18,5,0,28041,29,Male,Black or African American,100000+,Yes,BachelorDegree,BachelorDegree,BachelorDegree,30,Yes,No,36
3,b110375,631356,1662486580026,18,19,7,0,33479,29,Male,Black or African American,100000+,Yes,BachelorDegree,BachelorDegree,BachelorDegree,30,Yes,No,36
3,b110375,631356,1662486613953,19,20,3,0,33927,29,Male,Black or African American,100000+,Yes,BachelorDegree,BachelorDegree,BachelorDegree,30,Yes,No,36
3,b110375,631356,1662486679643,20,21,4,0,65690,29,Male,Black or African American,100000+,Yes,BachelorDegree,BachelorDegree,BachelorDegree,30,Yes,No,36
3,b110375,631356,1662486739160,21,22,4,0,59517,29,Male,Black or African American,100000+,Yes,BachelorDegree,BachelorDegree,BachelorDegree,30,Yes,No,36
3,b110375,631356,1662486752637,22,23,3,0,13477,29,Male,Black or African American,100000+,Yes,BachelorDegree,BachelorDegree,BachelorDegree,30,Yes,No,36
3,b110375,631356,1662486819157,23,24,1,0,66520,29,Male,Black or African American,100000+,Yes,BachelorDegree,BachelorDegree,BachelorDegree,30,Yes,No,36
3,b110375,631356,1662486870959,24,25,5,0,51802,29,Male,Black or African American,100000+,Yes,BachelorDegree,BachelorDegree,BachelorDegree,30,Yes,No,36
3,b110375,631356,1662486918466,25,26,6,0,47506,29,Male,Black or African American,100000+,Yes,BachelorDegree,BachelorDegree,BachelorDegree,30,Yes,No,36
3,b110375,631356,1662486947756,26,27,6,0,29290,29,Male,Black or African American,100000+,Yes,BachelorDegree,BachelorDegree,BachelorDegree,30,Yes,No,36
3,b110375,631356,1662486967701,27,28,4,0,19945,29,Male,Black or African American,100000+,Yes,BachelorDegree,BachelorDegree,BachelorDegree,30,Yes,No,36
3,b110375,631356,1662486994987,28,29,6,1,27286,29,Male,Black or African American,100000+,Yes,BachelorDegree,BachelorDegree,BachelorDegree,30,Yes,No,36
3,b110375,631356,1662487048222,29,30,5,1,53235,29,Male,Black or African American,100000+,Yes,BachelorDegree,BachelorDegree,BachelorDegree,30,Yes,No,36
3,b110375,631356,1662487077656,30,31,5,0,29433,29,Male,Black or African American,100000+,Yes,BachelorDegree,BachelorDegree,BachelorDegree,30,Yes,No,36
3,b110375,631356,1662487092266,31,32,4,0,14610,29,Male,Black or African American,100000+,Yes,BachelorDegree,BachelorDegree,BachelorDegree,30,Yes,No,36
3,b110375,631356,1662487130712,32,33,3,0,38446,29,Male,Black or African American,100000+,Yes,BachelorDegree,BachelorDegree,BachelorDegree,30,Yes,No,36
3,b110375,631356,1662487150638,33,34,8,0,19926,29,Male,Black or African American,100000+,Yes,BachelorDegree,BachelorDegree,BachelorDegree,30,Yes,No,36
3,b110375,631356,1662487202682,34,35,1,0,52043,29,Male,Black or African American,100000+,Yes,BachelorDegree,BachelorDegree,BachelorDegree,30,Yes,No,36
3,b110375,631356,1662487214308,35,36,5,0,11626,29,Male,Black or African American,100000+,Yes,BachelorDegree,BachelorDegree,BachelorDegree,30,Yes,No,36
4,n962604,65885,1662485948608,0,1,7,0,19761,32,Female,White,35000-49999,Yes,SomeColl,BachelorDegree,BachelorDegree,25,Yes,No,36
4,n962604,65885,1662485956781,1,2,1,1,8173,32,Female,White,35000-49999,Yes,SomeColl,BachelorDegree,BachelorDegree,25,Yes,No,36
4,n962604,65885,1662485975318,2,3,7,1,18537,32,Female,White,35000-49999,Yes,SomeColl,BachelorDegree,BachelorDegree,25,Yes,No,36
4,n962604,65885,1662485994755,3,4,4,1,19436,32,Female,White,35000-49999,Yes,SomeColl,BachelorDegree,BachelorDegree,25,Yes,No,36
4,n962604,65885,1662486001549,4,5,3,1,6793,32,Female,White,35000-49999,Yes,SomeColl,BachelorDegree,BachelorDegree,25,Yes,No,36
4,n962604,65885,1662486018490,5,6,7,0,16940,32,Female,White,35000-49999,Yes,SomeColl,BachelorDegree,BachelorDegree,25,Yes,No,36
4,n962604,65885,1662486034915,6,7,2,0,16424,32,Female,White,35000-49999,Yes,SomeColl,BachelorDegree,BachelorDegree,25,Yes,No,36
4,n962604,65885,1662486053788,7,8,8,0,18872,32,Female,White,35000-49999,Yes,SomeColl,BachelorDegree,BachelorDegree,25,Yes,No,36
4,n962604,65885,1662486089124,8,9,8,1,35335,32,Female,White,35000-49999,Yes,SomeColl,BachelorDegree,BachelorDegree,25,Yes,No,36
4,n962604,65885,1662486097772,9,10,7,0,8648,32,Female,White,35000-49999,Yes,SomeColl,BachelorDegree,BachelorDegree,25,Yes,No,36
4,n962604,65885,1662486118761,10,11,5,1,20989,32,Female,White,35000-49999,Yes,SomeColl,BachelorDegree,BachelorDegree,25,Yes,No,36
4,n962604,65885,1662486125450,11,12,6,1,6688,32,Female,White,35000-49999,Yes,SomeColl,BachelorDegree,BachelorDegree,25,Yes,No,36
4,n962604,65885,1662486135253,12,13,5,0,9803,32,Female,White,35000-49999,Yes,SomeColl,BachelorDegree,BachelorDegree,25,Yes,No,36
4,n962604,65885,1662486154002,13,14,8,0,18748,32,Female,White,35000-49999,Yes,SomeColl,BachelorDegree,BachelorDegree,25,Yes,No,36
4,n962604,65885,1662486158838,14,15,8,0,4836,32,Female,White,35000-49999,Yes,SomeColl,BachelorDegree,BachelorDegree,25,Yes,No,36
4,n962604,65885,1662486172124,15,16,5,0,13286,32,Female,White,35000-49999,Yes,SomeColl,BachelorDegree,BachelorDegree,25,Yes,No,36
4,n962604,65885,1662486181117,16,17,4,0,8993,32,Female,White,35000-49999,Yes,SomeColl,BachelorDegree,BachelorDegree,25,Yes,No,36
4,n962604,65885,1662486201843,17,18,7,1,20726,32,Female,White,35000-49999,Yes,SomeColl,BachelorDegree,BachelorDegree,25,Yes,No,36
4,n962604,65885,1662486210770,18,19,5,0,8926,32,Female,White,35000-49999,Yes,SomeColl,BachelorDegree,BachelorDegree,25,Yes,No,36
4,n962604,65885,1662486223591,19,20,2,0,12821,32,Female,White,35000-49999,Yes,SomeColl,BachelorDegree,BachelorDegree,25,Yes,No,36
4,n962604,65885,1662486239789,20,21,3,0,16198,32,Female,White,35000-49999,Yes,SomeColl,BachelorDegree,BachelorDegree,25,Yes,No,36
4,n962604,65885,1662486260530,21,22,8,0,20741,32,Female,White,35000-49999,Yes,SomeColl,BachelorDegree,BachelorDegree,25,Yes,No,36
4,n962604,65885,1662486272625,22,23,5,0,12095,32,Female,White,35000-49999,Yes,SomeColl,BachelorDegree,BachelorDegree,25,Yes,No,36
4,n962604,65885,1662486299284,23,24,7,0,26658,32,Female,White,35000-49999,Yes,SomeColl,BachelorDegree,BachelorDegree,25,Yes,No,36
4,n962604,65885,1662486312093,24,25,1,0,12809,32,Female,White,35000-49999,Yes,SomeColl,BachelorDegree,BachelorDegree,25,Yes,No,36
4,n962604,65885,1662486336356,25,26,8,0,24263,32,Female,White,35000-49999,Yes,SomeColl,BachelorDegree,BachelorDegree,25,Yes,No,36
4,n962604,65885,1662486364063,26,27,4,0,27707,32,Female,White,35000-49999,Yes,SomeColl,BachelorDegree,BachelorDegree,25,Yes,No,36
4,n962604,65885,1662486379466,27,28,2,0,15403,32,Female,White,35000-49999,Yes,SomeColl,BachelorDegree,BachelorDegree,25,Yes,No,36
4,n962604,65885,1662486396772,28,29,3,0,17306,32,Female,White,35000-49999,Yes,SomeColl,BachelorDegree,BachelorDegree,25,Yes,No,36
4,n962604,65885,1662486538911,29,30,4,0,142139,32,Female,White,35000-49999,Yes,SomeColl,BachelorDegree,BachelorDegree,25,Yes,No,36
4,n962604,65885,1662486553565,30,31,3,0,14654,32,Female,White,35000-49999,Yes,SomeColl,BachelorDegree,BachelorDegree,25,Yes,No,36
4,n962604,65885,1662486572433,31,32,1,0,18868,32,Female,White,35000-49999,Yes,SomeColl,BachelorDegree,BachelorDegree,25,Yes,No,36
4,n962604,65885,1662486583022,32,33,3,0,10589,32,Female,White,35000-49999,Yes,SomeColl,BachelorDegree,BachelorDegree,25,Yes,No,36
4,n962604,65885,1662486588940,33,34,1,1,5918,32,Female,White,35000-49999,Yes,SomeColl,BachelorDegree,BachelorDegree,25,Yes,No,36
4,n962604,65885,1662486604259,34,35,3,1,15319,32,Female,White,35000-49999,Yes,SomeColl,BachelorDegree,BachelorDegree,25,Yes,No,36
4,n962604,65885,1662486610074,35,36,4,0,5815,32,Female,White,35000-49999,Yes,SomeColl,BachelorDegree,BachelorDegree,25,Yes,No,36
5,e881033,221355,1662486286353,0,1,5,1,26438,45,Male,White,75000-99999,Yes,AssociateDegree,SomeColl,SomeColl,25,Yes,Yes,36
5,e881033,221355,1662486304984,1,2,8,0,18630,45,Male,White,75000-99999,Yes,AssociateDegree,SomeColl,SomeColl,25,Yes,Yes,36
5,e881033,221355,1662486313527,2,3,7,1,8543,45,Male,White,75000-99999,Yes,AssociateDegree,SomeColl,SomeColl,25,Yes,Yes,36
5,e881033,221355,1662486328024,3,4,4,1,14497,45,Male,White,75000-99999,Yes,AssociateDegree,SomeColl,SomeColl,25,Yes,Yes,36
5,e881033,221355,1662486340448,4,5,3,1,12424,45,Male,White,75000-99999,Yes,AssociateDegree,SomeColl,SomeColl,25,Yes,Yes,36
5,e881033,221355,1662486348976,5,6,1,1,8528,45,Male,White,75000-99999,Yes,AssociateDegree,SomeColl,SomeColl,25,Yes,Yes,36
5,e881033,221355,1662486382064,6,7,2,0,33088,45,Male,White,75000-99999,Yes,AssociateDegree,SomeColl,SomeColl,25,Yes,Yes,36
5,e881033,221355,1662486408008,7,8,1,1,25944,45,Male,White,75000-99999,Yes,AssociateDegree,SomeColl,SomeColl,25,Yes,Yes,36
5,e881033,221355,1662486416552,8,9,8,1,8544,45,Male,White,75000-99999,Yes,AssociateDegree,SomeColl,SomeColl,25,Yes,Yes,36
5,e881033,221355,1662486444360,9,10,4,1,27808,45,Male,White,75000-99999,Yes,AssociateDegree,SomeColl,SomeColl,25,Yes,Yes,36
5,e881033,221355,1662486456240,10,11,5,1,11880,45,Male,White,75000-99999,Yes,AssociateDegree,SomeColl,SomeColl,25,Yes,Yes,36
5,e881033,221355,1662486474008,11,12,8,0,17768,45,Male,White,75000-99999,Yes,AssociateDegree,SomeColl,SomeColl,25,Yes,Yes,36
5,e881033,221355,1662486495799,12,13,5,0,21791,45,Male,White,75000-99999,Yes,AssociateDegree,SomeColl,SomeColl,25,Yes,Yes,36
5,e881033,221355,1662486512615,13,14,1,1,16816,45,Male,White,75000-99999,Yes,AssociateDegree,SomeColl,SomeColl,25,Yes,Yes,36
5,e881033,221355,1662486532904,14,15,2,1,20289,45,Male,White,75000-99999,Yes,AssociateDegree,SomeColl,SomeColl,25,Yes,Yes,36
5,e881033,221355,1662486619184,15,16,4,1,86280,45,Male,White,75000-99999,Yes,AssociateDegree,SomeColl,SomeColl,25,Yes,Yes,36
5,e881033,221355,1662486627167,16,17,6,1,7983,45,Male,White,75000-99999,Yes,AssociateDegree,SomeColl,SomeColl,25,Yes,Yes,36
5,e881033,221355,1662486640705,17,18,7,1,13537,45,Male,White,75000-99999,Yes,AssociateDegree,SomeColl,SomeColl,25,Yes,Yes,36
5,e881033,221355,1662486652120,18,19,3,1,11415,45,Male,White,75000-99999,Yes,AssociateDegree,SomeColl,SomeColl,25,Yes,Yes,36
5,e881033,221355,1662486672832,19,20,2,0,20711,45,Male,White,75000-99999,Yes,AssociateDegree,SomeColl,SomeColl,25,Yes,Yes,36
5,e881033,221355,1662486702952,20,21,1,0,30120,45,Male,White,75000-99999,Yes,AssociateDegree,SomeColl,SomeColl,25,Yes,Yes,36
5,e881033,221355,1662486738287,21,22,7,1,35335,45,Male,White,75000-99999,Yes,AssociateDegree,SomeColl,SomeColl,25,Yes,Yes,36
5,e881033,221355,1662486781576,22,23,5,0,43289,45,Male,White,75000-99999,Yes,AssociateDegree,SomeColl,SomeColl,25,Yes,Yes,36
5,e881033,221355,1662486822105,23,24,3,1,40529,45,Male,White,75000-99999,Yes,AssociateDegree,SomeColl,SomeColl,25,Yes,Yes,36
5,e881033,221355,1662486848800,24,25,7,1,26695,45,Male,White,75000-99999,Yes,AssociateDegree,SomeColl,SomeColl,25,Yes,Yes,36
5,e881033,221355,1662486895657,25,26,2,1,46857,45,Male,White,75000-99999,Yes,AssociateDegree,SomeColl,SomeColl,25,Yes,Yes,36
5,e881033,221355,1662486935880,26,27,4,0,40223,45,Male,White,75000-99999,Yes,AssociateDegree,SomeColl,SomeColl,25,Yes,Yes,36
5,e881033,221355,1662486987160,27,28,4,0,51280,45,Male,White,75000-99999,Yes,AssociateDegree,SomeColl,SomeColl,25,Yes,Yes,36
5,e881033,221355,1662487034176,28,29,6,1,47016,45,Male,White,75000-99999,Yes,AssociateDegree,SomeColl,SomeColl,25,Yes,Yes,36
5,e881033,221355,1662487059488,29,30,5,1,25311,45,Male,White,75000-99999,Yes,AssociateDegree,SomeColl,SomeColl,25,Yes,Yes,36
5,e881033,221355,1662487199673,30,31,1,0,140185,45,Male,White,75000-99999,Yes,AssociateDegree,SomeColl,SomeColl,25,Yes,Yes,36
5,e881033,221355,1662487237824,31,32,1,0,38151,45,Male,White,75000-99999,Yes,AssociateDegree,SomeColl,SomeColl,25,Yes,Yes,36
5,e881033,221355,1662487315033,32,33,6,0,77209,45,Male,White,75000-99999,Yes,AssociateDegree,SomeColl,SomeColl,25,Yes,Yes,36
5,e881033,221355,1662487354424,33,34,1,1,39391,45,Male,White,75000-99999,Yes,AssociateDegree,SomeColl,SomeColl,25,Yes,Yes,36
5,e881033,221355,1662487379216,34,35,1,0,24791,45,Male,White,75000-99999,Yes,AssociateDegree,SomeColl,SomeColl,25,Yes,Yes,36
5,e881033,221355,1662487408056,35,36,8,0,28840,45,Male,White,75000-99999,Yes,AssociateDegree,SomeColl,SomeColl,25,Yes,Yes,36
6,n317180,308728,1662486086819,0,1,5,1,15550,41,Male,White,100000+,Yes,BachelorDegree,MastersDegree,GradHS,24,No,No,36
6,n317180,308728,1662486097027,1,2,1,1,10208,41,Male,White,100000+,Yes,BachelorDegree,MastersDegree,GradHS,24,No,No,36
6,n317180,308728,1662486110643,2,3,7,1,13616,41,Male,White,100000+,Yes,BachelorDegree,MastersDegree,GradHS,24,No,No,36
6,n317180,308728,1662486120498,3,4,4,1,9855,41,Male,White,100000+,Yes,BachelorDegree,MastersDegree,GradHS,24,No,No,36
6,n317180,308728,1662486129307,4,5,3,1,8809,41,Male,White,100000+,Yes,BachelorDegree,MastersDegree,GradHS,24,No,No,36
6,n317180,308728,1662486138707,5,6,1,1,9400,41,Male,White,100000+,Yes,BachelorDegree,MastersDegree,GradHS,24,No,No,36
6,n317180,308728,1662486189011,6,7,6,1,50304,41,Male,White,100000+,Yes,BachelorDegree,MastersDegree,GradHS,24,No,No,36
6,n317180,308728,1662486277618,7,8,1,1,88607,41,Male,White,100000+,Yes,BachelorDegree,MastersDegree,GradHS,24,No,No,36
6,n317180,308728,1662486298738,8,9,8,1,21119,41,Male,White,100000+,Yes,BachelorDegree,MastersDegree,GradHS,24,No,No,36
6,n317180,308728,1662486317939,9,10,4,1,19201,41,Male,White,100000+,Yes,BachelorDegree,MastersDegree,GradHS,24,No,No,36
6,n317180,308728,1662486345680,10,11,5,1,27740,41,Male,White,100000+,Yes,BachelorDegree,MastersDegree,GradHS,24,No,No,36
6,n317180,308728,1662486354370,11,12,6,1,8689,41,Male,White,100000+,Yes,BachelorDegree,MastersDegree,GradHS,24,No,No,36
6,n317180,308728,1662486378243,12,13,2,1,23872,41,Male,White,100000+,Yes,BachelorDegree,MastersDegree,GradHS,24,No,No,36
6,n317180,308728,1662486431366,13,14,1,1,53123,41,Male,White,100000+,Yes,BachelorDegree,MastersDegree,GradHS,24,No,No,36
6,n317180,308728,1662486447267,14,15,2,1,15901,41,Male,White,100000+,Yes,BachelorDegree,MastersDegree,GradHS,24,No,No,36
6,n317180,308728,1662486458659,15,16,4,1,11392,41,Male,White,100000+,Yes,BachelorDegree,MastersDegree,GradHS,24,No,No,36
6,n317180,308728,1662486468034,16,17,6,1,9375,41,Male,White,100000+,Yes,BachelorDegree,MastersDegree,GradHS,24,No,No,36
6,n317180,308728,1662486487419,17,18,4,0,19385,41,Male,White,100000+,Yes,BachelorDegree,MastersDegree,GradHS,24,No,No,36
6,n317180,308728,1662486531283,18,19,3,1,43863,41,Male,White,100000+,Yes,BachelorDegree,MastersDegree,GradHS,24,No,No,36
6,n317180,308728,1662486555687,19,20,6,0,24404,41,Male,White,100000+,Yes,BachelorDegree,MastersDegree,GradHS,24,No,No,36
6,n317180,308728,1662486670395,20,21,8,1,114708,41,Male,White,100000+,Yes,BachelorDegree,MastersDegree,GradHS,24,No,No,36
6,n317180,308728,1662486711778,21,22,2,0,41383,41,Male,White,100000+,Yes,BachelorDegree,MastersDegree,GradHS,24,No,No,36
6,n317180,308728,1662486792569,22,23,5,0,80791,41,Male,White,100000+,Yes,BachelorDegree,MastersDegree,GradHS,24,No,No,36
6,n317180,308728,1662487004104,23,24,3,1,211535,41,Male,White,100000+,Yes,BachelorDegree,MastersDegree,GradHS,24,No,No,36
6,n317180,308728,1662487100560,24,25,7,1,96456,41,Male,White,100000+,Yes,BachelorDegree,MastersDegree,GradHS,24,No,No,36
6,n317180,308728,1662487174799,25,26,5,0,74239,41,Male,White,100000+,Yes,BachelorDegree,MastersDegree,GradHS,24,No,No,36
6,n317180,308728,1662487221176,26,27,3,0,46376,41,Male,White,100000+,Yes,BachelorDegree,MastersDegree,GradHS,24,No,No,36
6,n317180,308728,1662487259327,27,28,3,0,38150,41,Male,White,100000+,Yes,BachelorDegree,MastersDegree,GradHS,24,No,No,36
6,n317180,308728,1662487313247,28,29,6,1,53919,41,Male,White,100000+,Yes,BachelorDegree,MastersDegree,GradHS,24,No,No,36
6,n317180,308728,1662487426393,29,30,8,0,113146,41,Male,White,100000+,Yes,BachelorDegree,MastersDegree,GradHS,24,No,No,36
6,n317180,308728,1662487559113,30,31,4,1,132720,41,Male,White,100000+,Yes,BachelorDegree,MastersDegree,GradHS,24,No,No,36
6,n317180,308728,1662487706151,31,32,7,0,147038,41,Male,White,100000+,Yes,BachelorDegree,MastersDegree,GradHS,24,No,No,36
6,n317180,308728,1662487747599,32,33,4,0,41448,41,Male,White,100000+,Yes,BachelorDegree,MastersDegree,GradHS,24,No,No,36
6,n317180,308728,1662487752472,33,34,7,0,4873,41,Male,White,100000+,Yes,BachelorDegree,MastersDegree,GradHS,24,No,No,36
6,n317180,308728,1662487775015,34,35,1,0,22542,41,Male,White,100000+,Yes,BachelorDegree,MastersDegree,GradHS,24,No,No,36
6,n317180,308728,1662487785744,35,36,4,0,10729,41,Male,White,100000+,Yes,BachelorDegree,MastersDegree,GradHS,24,No,No,36
7,h287870,939079,1662486247849,0,1,5,1,29708,25,Male,Native Hawaiian or Other Pacific Islander,16000-24999,No,GradHS,GradHS,AssociateDegree,30,Yes,Yes,36
7,h287870,939079,1662486272240,1,2,1,1,24391,25,Male,Native Hawaiian or Other Pacific Islander,16000-24999,No,GradHS,GradHS,AssociateDegree,30,Yes,Yes,36
7,h287870,939079,1662486312911,2,3,7,1,40671,25,Male,Native Hawaiian or Other Pacific Islander,16000-24999,No,GradHS,GradHS,AssociateDegree,30,Yes,Yes,36
7,h287870,939079,1662486374816,3,4,4,1,61905,25,Male,Native Hawaiian or Other Pacific Islander,16000-24999,No,GradHS,GradHS,AssociateDegree,30,Yes,Yes,36
7,h287870,939079,1662486411329,4,5,3,1,36513,25,Male,Native Hawaiian or Other Pacific Islander,16000-24999,No,GradHS,GradHS,AssociateDegree,30,Yes,Yes,36
7,h287870,939079,1662486450216,5,6,2,0,38887,25,Male,Native Hawaiian or Other Pacific Islander,16000-24999,No,GradHS,GradHS,AssociateDegree,30,Yes,Yes,36
7,h287870,939079,1662486487687,6,7,2,0,37471,25,Male,Native Hawaiian or Other Pacific Islander,16000-24999,No,GradHS,GradHS,AssociateDegree,30,Yes,Yes,36
7,h287870,939079,1662486513128,7,8,1,1,25440,25,Male,Native Hawaiian or Other Pacific Islander,16000-24999,No,GradHS,GradHS,AssociateDegree,30,Yes,Yes,36
7,h287870,939079,1662486737449,8,9,4,0,224321,25,Male,Native Hawaiian or Other Pacific Islander,16000-24999,No,GradHS,GradHS,AssociateDegree,30,Yes,Yes,36
7,h287870,939079,1662486798641,9,10,4,1,61191,25,Male,Native Hawaiian or Other Pacific Islander,16000-24999,No,GradHS,GradHS,AssociateDegree,30,Yes,Yes,36
7,h287870,939079,1662486834160,10,11,5,1,35519,25,Male,Native Hawaiian or Other Pacific Islander,16000-24999,No,GradHS,GradHS,AssociateDegree,30,Yes,Yes,36
7,h287870,939079,1662486862424,11,12,6,1,28264,25,Male,Native Hawaiian or Other Pacific Islander,16000-24999,No,GradHS,GradHS,AssociateDegree,30,Yes,Yes,36
7,h287870,939079,1662486898785,12,13,2,1,36361,25,Male,Native Hawaiian or Other Pacific Islander,16000-24999,No,GradHS,GradHS,AssociateDegree,30,Yes,Yes,36
7,h287870,939079,1662486934736,13,14,1,1,35950,25,Male,Native Hawaiian or Other Pacific Islander,16000-24999,No,GradHS,GradHS,AssociateDegree,30,Yes,Yes,36
7,h287870,939079,1662486998600,14,15,8,0,63863,25,Male,Native Hawaiian or Other Pacific Islander,16000-24999,No,GradHS,GradHS,AssociateDegree,30,Yes,Yes,36
7,h287870,939079,1662487054482,15,16,4,1,55882,25,Male,Native Hawaiian or Other Pacific Islander,16000-24999,No,GradHS,GradHS,AssociateDegree,30,Yes,Yes,36
7,h287870,939079,1662487131793,16,17,3,0,77311,25,Male,Native Hawaiian or Other Pacific Islander,16000-24999,No,GradHS,GradHS,AssociateDegree,30,Yes,Yes,36
7,h287870,939079,1662487213465,17,18,7,1,81672,25,Male,Native Hawaiian or Other Pacific Islander,16000-24999,No,GradHS,GradHS,AssociateDegree,30,Yes,Yes,36
7,h287870,939079,1662487253849,18,19,5,0,40384,25,Male,Native Hawaiian or Other Pacific Islander,16000-24999,No,GradHS,GradHS,AssociateDegree,30,Yes,Yes,36
7,h287870,939079,1662487296298,19,20,2,0,42449,25,Male,Native Hawaiian or Other Pacific Islander,16000-24999,No,GradHS,GradHS,AssociateDegree,30,Yes,Yes,36
7,h287870,939079,1662487352849,20,21,4,0,56551,25,Male,Native Hawaiian or Other Pacific Islander,16000-24999,No,GradHS,GradHS,AssociateDegree,30,Yes,Yes,36
7,h287870,939079,1662487467337,21,22,8,0,114488,25,Male,Native Hawaiian or Other Pacific Islander,16000-24999,No,GradHS,GradHS,AssociateDegree,30,Yes,Yes,36
7,h287870,939079,1662487501129,22,23,7,0,33792,25,Male,Native Hawaiian or Other Pacific Islander,16000-24999,No,GradHS,GradHS,AssociateDegree,30,Yes,Yes,36
7,h287870,939079,1662487536666,23,24,2,0,35537,25,Male,Native Hawaiian or Other Pacific Islander,16000-24999,No,GradHS,GradHS,AssociateDegree,30,Yes,Yes,36
7,h287870,939079,1662487563978,24,25,3,0,27312,25,Male,Native Hawaiian or Other Pacific Islander,16000-24999,No,GradHS,GradHS,AssociateDegree,30,Yes,Yes,36
7,h287870,939079,1662487606377,25,26,8,0,42399,25,Male,Native Hawaiian or Other Pacific Islander,16000-24999,No,GradHS,GradHS,AssociateDegree,30,Yes,Yes,36
7,h287870,939079,1662487623138,26,27,4,0,16760,25,Male,Native Hawaiian or Other Pacific Islander,16000-24999,No,GradHS,GradHS,AssociateDegree,30,Yes,Yes,36
7,h287870,939079,1662487691201,27,28,8,0,68063,25,Male,Native Hawaiian or Other Pacific Islander,16000-24999,No,GradHS,GradHS,AssociateDegree,30,Yes,Yes,36
7,h287870,939079,1662487762986,28,29,8,0,71784,25,Male,Native Hawaiian or Other Pacific Islander,16000-24999,No,GradHS,GradHS,AssociateDegree,30,Yes,Yes,36
7,h287870,939079,1662487853786,29,30,5,1,90800,25,Male,Native Hawaiian or Other Pacific Islander,16000-24999,No,GradHS,GradHS,AssociateDegree,30,Yes,Yes,36
7,h287870,939079,1662488096826,30,31,5,0,243040,25,Male,Native Hawaiian or Other Pacific Islander,16000-24999,No,GradHS,GradHS,AssociateDegree,30,Yes,Yes,36
7,h287870,939079,1662488136307,31,32,5,0,39480,25,Male,Native Hawaiian or Other Pacific Islander,16000-24999,No,GradHS,GradHS,AssociateDegree,30,Yes,Yes,36
7,h287870,939079,1662488215970,32,33,5,1,79663,25,Male,Native Hawaiian or Other Pacific Islander,16000-24999,No,GradHS,GradHS,AssociateDegree,30,Yes,Yes,36
7,h287870,939079,1662488265579,33,34,3,0,49609,25,Male,Native Hawaiian or Other Pacific Islander,16000-24999,No,GradHS,GradHS,AssociateDegree,30,Yes,Yes,36
7,h287870,939079,1662488314643,34,35,3,1,49064,25,Male,Native Hawaiian or Other Pacific Islander,16000-24999,No,GradHS,GradHS,AssociateDegree,30,Yes,Yes,36
7,h287870,939079,1662488348699,35,36,1,0,34056,25,Male,Native Hawaiian or Other Pacific Islander,16000-24999,No,GradHS,GradHS,AssociateDegree,30,Yes,Yes,36
8,b298570,953657,1662486232515,0,1,5,1,25530,31,Female,White,75000-99999,Yes,MastersDegree,GradHS,MastersDegree,20,Yes,No,36
8,b298570,953657,1662486248774,1,2,1,1,16259,31,Female,White,75000-99999,Yes,MastersDegree,GradHS,MastersDegree,20,Yes,No,36
8,b298570,953657,1662486258422,2,3,7,1,9648,31,Female,White,75000-99999,Yes,MastersDegree,GradHS,MastersDegree,20,Yes,No,36
8,b298570,953657,1662486276931,3,4,4,1,18509,31,Female,White,75000-99999,Yes,MastersDegree,GradHS,MastersDegree,20,Yes,No,36
8,b298570,953657,1662486287129,4,5,3,1,10198,31,Female,White,75000-99999,Yes,MastersDegree,GradHS,MastersDegree,20,Yes,No,36
8,b298570,953657,1662486294787,5,6,1,1,7658,31,Female,White,75000-99999,Yes,MastersDegree,GradHS,MastersDegree,20,Yes,No,36
8,b298570,953657,1662486308774,6,7,2,0,13987,31,Female,White,75000-99999,Yes,MastersDegree,GradHS,MastersDegree,20,Yes,No,36
8,b298570,953657,1662486321724,7,8,1,1,12949,31,Female,White,75000-99999,Yes,MastersDegree,GradHS,MastersDegree,20,Yes,No,36
8,b298570,953657,1662486328886,8,9,8,1,7162,31,Female,White,75000-99999,Yes,MastersDegree,GradHS,MastersDegree,20,Yes,No,36
8,b298570,953657,1662486347442,9,10,1,0,18555,31,Female,White,75000-99999,Yes,MastersDegree,GradHS,MastersDegree,20,Yes,No,36
8,b298570,953657,1662486359491,10,11,5,1,12049,31,Female,White,75000-99999,Yes,MastersDegree,GradHS,MastersDegree,20,Yes,No,36
8,b298570,953657,1662486379366,11,12,6,1,19875,31,Female,White,75000-99999,Yes,MastersDegree,GradHS,MastersDegree,20,Yes,No,36
8,b298570,953657,1662486388860,12,13,1,0,9493,31,Female,White,75000-99999,Yes,MastersDegree,GradHS,MastersDegree,20,Yes,No,36
8,b298570,953657,1662486421286,13,14,5,0,32426,31,Female,White,75000-99999,Yes,MastersDegree,GradHS,MastersDegree,20,Yes,No,36
8,b298570,953657,1662486429110,14,15,6,0,7823,31,Female,White,75000-99999,Yes,MastersDegree,GradHS,MastersDegree,20,Yes,No,36
8,b298570,953657,1662486461824,15,16,3,0,32713,31,Female,White,75000-99999,Yes,MastersDegree,GradHS,MastersDegree,20,Yes,No,36
8,b298570,953657,1662486472033,16,17,6,1,10209,31,Female,White,75000-99999,Yes,MastersDegree,GradHS,MastersDegree,20,Yes,No,36
8,b298570,953657,1662486483289,17,18,7,1,11256,31,Female,White,75000-99999,Yes,MastersDegree,GradHS,MastersDegree,20,Yes,No,36
8,b298570,953657,1662486492079,18,19,5,0,8789,31,Female,White,75000-99999,Yes,MastersDegree,GradHS,MastersDegree,20,Yes,No,36
8,b298570,953657,1662486493934,19,20,5,0,1855,31,Female,White,75000-99999,Yes,MastersDegree,GradHS,MastersDegree,20,Yes,No,36
8,b298570,953657,1662486520016,20,21,4,0,26081,31,Female,White,75000-99999,Yes,MastersDegree,GradHS,MastersDegree,20,Yes,No,36
8,b298570,953657,1662486548507,21,22,5,0,28491,31,Female,White,75000-99999,Yes,MastersDegree,GradHS,MastersDegree,20,Yes,No,36
8,b298570,953657,1662486568387,22,23,6,1,19880,31,Female,White,75000-99999,Yes,MastersDegree,GradHS,MastersDegree,20,Yes,No,36
8,b298570,953657,1662486603158,23,24,1,0,34771,31,Female,White,75000-99999,Yes,MastersDegree,GradHS,MastersDegree,20,Yes,No,36
8,b298570,953657,1662486630511,24,25,4,0,27353,31,Female,White,75000-99999,Yes,MastersDegree,GradHS,MastersDegree,20,Yes,No,36
8,b298570,953657,1662486646516,25,26,2,1,16005,31,Female,White,75000-99999,Yes,MastersDegree,GradHS,MastersDegree,20,Yes,No,36
8,b298570,953657,1662486671347,26,27,4,0,24830,31,Female,White,75000-99999,Yes,MastersDegree,GradHS,MastersDegree,20,Yes,No,36
8,b298570,953657,1662486697184,27,28,7,0,25837,31,Female,White,75000-99999,Yes,MastersDegree,GradHS,MastersDegree,20,Yes,No,36
8,b298570,953657,1662486712863,28,29,6,1,15679,31,Female,White,75000-99999,Yes,MastersDegree,GradHS,MastersDegree,20,Yes,No,36
8,b298570,953657,1662486748581,29,30,5,1,35717,31,Female,White,75000-99999,Yes,MastersDegree,GradHS,MastersDegree,20,Yes,No,36
8,b298570,953657,1662486785958,30,31,7,0,37377,31,Female,White,75000-99999,Yes,MastersDegree,GradHS,MastersDegree,20,Yes,No,36
8,b298570,953657,1662486855831,31,32,1,0,69872,31,Female,White,75000-99999,Yes,MastersDegree,GradHS,MastersDegree,20,Yes,No,36
8,b298570,953657,1662486901080,32,33,5,1,45249,31,Female,White,75000-99999,Yes,MastersDegree,GradHS,MastersDegree,20,Yes,No,36
8,b298570,953657,1662486927155,33,34,1,1,26075,31,Female,White,75000-99999,Yes,MastersDegree,GradHS,MastersDegree,20,Yes,No,36
8,b298570,953657,1662486952985,34,35,3,1,25830,31,Female,White,75000-99999,Yes,MastersDegree,GradHS,MastersDegree,20,Yes,No,36
8,b298570,953657,1662486981093,35,36,1,0,28108,31,Female,White,75000-99999,Yes,MastersDegree,GradHS,MastersDegree,20,Yes,No,36
9,m118858,418439,1662486600166,0,1,5,1,78583,66,Female,White,0-5000,No,BachelorDegree,GradHS,GradHS,12,No,Yes,32
9,m118858,418439,1662486634227,1,2,1,1,34060,66,Female,White,0-5000,No,BachelorDegree,GradHS,GradHS,12,No,Yes,32
9,m118858,418439,1662486684911,2,3,7,1,50684,66,Female,White,0-5000,No,BachelorDegree,GradHS,GradHS,12,No,Yes,32
9,m118858,418439,1662486755742,3,4,4,1,70831,66,Female,White,0-5000,No,BachelorDegree,GradHS,GradHS,12,No,Yes,32
9,m118858,418439,1662486790240,4,5,3,1,34498,66,Female,White,0-5000,No,BachelorDegree,GradHS,GradHS,12,No,Yes,32
9,m118858,418439,1662486818386,5,6,1,1,28146,66,Female,White,0-5000,No,BachelorDegree,GradHS,GradHS,12,No,Yes,32
9,m118858,418439,1662486886442,6,7,2,0,68056,66,Female,White,0-5000,No,BachelorDegree,GradHS,GradHS,12,No,Yes,32
9,m118858,418439,1662486939923,7,8,1,1,53480,66,Female,White,0-5000,No,BachelorDegree,GradHS,GradHS,12,No,Yes,32
9,m118858,418439,1662486995200,8,9,1,0,55277,66,Female,White,0-5000,No,BachelorDegree,GradHS,GradHS,12,No,Yes,32
9,m118858,418439,1662487109057,9,10,4,1,113857,66,Female,White,0-5000,No,BachelorDegree,GradHS,GradHS,12,No,Yes,32
9,m118858,418439,1662487170679,10,11,3,0,61622,66,Female,White,0-5000,No,BachelorDegree,GradHS,GradHS,12,No,Yes,32
9,m118858,418439,1662487215954,11,12,5,0,45275,66,Female,White,0-5000,No,BachelorDegree,GradHS,GradHS,12,No,Yes,32
9,m118858,418439,1662487279694,12,13,2,1,63740,66,Female,White,0-5000,No,BachelorDegree,GradHS,GradHS,12,No,Yes,32
9,m118858,418439,1662487323001,13,14,1,1,43307,66,Female,White,0-5000,No,BachelorDegree,GradHS,GradHS,12,No,Yes,32
9,m118858,418439,1662487441376,14,15,2,1,118374,66,Female,White,0-5000,No,BachelorDegree,GradHS,GradHS,12,No,Yes,32
9,m118858,418439,1662487493907,15,16,8,0,52531,66,Female,White,0-5000,No,BachelorDegree,GradHS,GradHS,12,No,Yes,32
9,m118858,418439,1662487568553,16,17,6,1,74646,66,Female,White,0-5000,No,BachelorDegree,GradHS,GradHS,12,No,Yes,32
9,m118858,418439,1662487602737,17,18,2,0,34184,66,Female,White,0-5000,No,BachelorDegree,GradHS,GradHS,12,No,Yes,32
9,m118858,418439,1662487651879,18,19,5,0,49142,66,Female,White,0-5000,No,BachelorDegree,GradHS,GradHS,12,No,Yes,32
9,m118858,418439,1662487706223,19,20,6,0,54344,66,Female,White,0-5000,No,BachelorDegree,GradHS,GradHS,12,No,Yes,32
9,m118858,418439,1662487845607,20,21,1,0,139384,66,Female,White,0-5000,No,BachelorDegree,GradHS,GradHS,12,No,Yes,32
9,m118858,418439,1662487952754,21,22,3,0,107147,66,Female,White,0-5000,No,BachelorDegree,GradHS,GradHS,12,No,Yes,32
9,m118858,418439,1662488076142,22,23,5,0,123388,66,Female,White,0-5000,No,BachelorDegree,GradHS,GradHS,12,No,Yes,32
9,m118858,418439,1662488163874,23,24,2,0,87732,66,Female,White,0-5000,No,BachelorDegree,GradHS,GradHS,12,No,Yes,32
9,m118858,418439,1662488307818,24,25,1,0,143943,66,Female,White,0-5000,No,BachelorDegree,GradHS,GradHS,12,No,Yes,32
9,m118858,418439,1662488499365,25,26,5,0,191547,66,Female,White,0-5000,No,BachelorDegree,GradHS,GradHS,12,No,Yes,32
9,m118858,418439,1662488550763,26,27,4,0,51397,66,Female,White,0-5000,No,BachelorDegree,GradHS,GradHS,12,No,Yes,32
9,m118858,418439,1662488635296,27,28,1,0,84533,66,Female,White,0-5000,No,BachelorDegree,GradHS,GradHS,12,No,Yes,32
9,m118858,418439,1662488727924,28,29,8,0,92628,66,Female,White,0-5000,No,BachelorDegree,GradHS,GradHS,12,No,Yes,32
9,m118858,418439,1662488771372,29,30,5,1,43448,66,Female,White,0-5000,No,BachelorDegree,GradHS,GradHS,12,No,Yes,32
9,m118858,418439,1662488856841,30,31,6,0,85469,66,Female,White,0-5000,No,BachelorDegree,GradHS,GradHS,12,No,Yes,32
9,m118858,418439,1662488904659,31,32,7,0,47818,66,Female,White,0-5000,No,BachelorDegree,GradHS,GradHS,12,No,Yes,32
9,m118858,418439,1662488904659,31,32,7,0,47818,66,Female,White,0-5000,No,BachelorDegree,GradHS,GradHS,12,No,Yes,32
9,m118858,418439,NA,32,33,NA,0,NA,66,Female,White,0-5000,No,BachelorDegree,GradHS,GradHS,12,No,Yes,32
9,m118858,418439,NA,33,34,NA,0,NA,66,Female,White,0-5000,No,BachelorDegree,GradHS,GradHS,12,No,Yes,32
9,m118858,418439,NA,34,35,NA,0,NA,66,Female,White,0-5000,No,BachelorDegree,GradHS,GradHS,12,No,Yes,32
9,m118858,418439,NA,35,36,NA,0,NA,66,Female,White,0-5000,No,BachelorDegree,GradHS,GradHS,12,No,Yes,32
10,h416285,752267,1662486445009,0,1,5,1,19679,62,Female,White,50000-74999,Yes,BachelorDegree,BachelorDegree,AssociateDegree,15,Yes,Yes,36
10,h416285,752267,1662486449289,1,2,5,0,4280,62,Female,White,50000-74999,Yes,BachelorDegree,BachelorDegree,AssociateDegree,15,Yes,Yes,36
10,h416285,752267,1662486455449,2,3,5,0,6159,62,Female,White,50000-74999,Yes,BachelorDegree,BachelorDegree,AssociateDegree,15,Yes,Yes,36
10,h416285,752267,1662486465779,3,4,8,0,10330,62,Female,White,50000-74999,Yes,BachelorDegree,BachelorDegree,AssociateDegree,15,Yes,Yes,36
10,h416285,752267,1662486476489,4,5,1,0,10710,62,Female,White,50000-74999,Yes,BachelorDegree,BachelorDegree,AssociateDegree,15,Yes,Yes,36
10,h416285,752267,1662486494494,5,6,1,1,18005,62,Female,White,50000-74999,Yes,BachelorDegree,BachelorDegree,AssociateDegree,15,Yes,Yes,36
10,h416285,752267,1662486511052,6,7,6,1,16558,62,Female,White,50000-74999,Yes,BachelorDegree,BachelorDegree,AssociateDegree,15,Yes,Yes,36
10,h416285,752267,1662486538583,7,8,6,0,27530,62,Female,White,50000-74999,Yes,BachelorDegree,BachelorDegree,AssociateDegree,15,Yes,Yes,36
10,h416285,752267,1662486566205,8,9,8,1,27622,62,Female,White,50000-74999,Yes,BachelorDegree,BachelorDegree,AssociateDegree,15,Yes,Yes,36
10,h416285,752267,1662486576667,9,10,8,0,10461,62,Female,White,50000-74999,Yes,BachelorDegree,BachelorDegree,AssociateDegree,15,Yes,Yes,36
10,h416285,752267,1662486595148,10,11,5,1,18481,62,Female,White,50000-74999,Yes,BachelorDegree,BachelorDegree,AssociateDegree,15,Yes,Yes,36
10,h416285,752267,1662486610422,11,12,5,0,15274,62,Female,White,50000-74999,Yes,BachelorDegree,BachelorDegree,AssociateDegree,15,Yes,Yes,36
10,h416285,752267,1662486629392,12,13,7,0,18969,62,Female,White,50000-74999,Yes,BachelorDegree,BachelorDegree,AssociateDegree,15,Yes,Yes,36
10,h416285,752267,1662486647310,13,14,8,0,17918,62,Female,White,50000-74999,Yes,BachelorDegree,BachelorDegree,AssociateDegree,15,Yes,Yes,36
10,h416285,752267,1662486662640,14,15,2,1,15330,62,Female,White,50000-74999,Yes,BachelorDegree,BachelorDegree,AssociateDegree,15,Yes,Yes,36
10,h416285,752267,1662486678788,15,16,7,0,16148,62,Female,White,50000-74999,Yes,BachelorDegree,BachelorDegree,AssociateDegree,15,Yes,Yes,36
10,h416285,752267,1662486694966,16,17,6,1,16178,62,Female,White,50000-74999,Yes,BachelorDegree,BachelorDegree,AssociateDegree,15,Yes,Yes,36
10,h416285,752267,1662486719624,17,18,7,1,24658,62,Female,White,50000-74999,Yes,BachelorDegree,BachelorDegree,AssociateDegree,15,Yes,Yes,36
10,h416285,752267,1662486749254,18,19,3,1,29630,62,Female,White,50000-74999,Yes,BachelorDegree,BachelorDegree,AssociateDegree,15,Yes,Yes,36
10,h416285,752267,1662486761853,19,20,6,0,12599,62,Female,White,50000-74999,Yes,BachelorDegree,BachelorDegree,AssociateDegree,15,Yes,Yes,36
10,h416285,752267,1662486779344,20,21,4,0,17491,62,Female,White,50000-74999,Yes,BachelorDegree,BachelorDegree,AssociateDegree,15,Yes,Yes,36
10,h416285,752267,1662486809168,21,22,5,0,29824,62,Female,White,50000-74999,Yes,BachelorDegree,BachelorDegree,AssociateDegree,15,Yes,Yes,36
10,h416285,752267,1662486821527,22,23,6,1,12359,62,Female,White,50000-74999,Yes,BachelorDegree,BachelorDegree,AssociateDegree,15,Yes,Yes,36
10,h416285,752267,1662486843987,23,24,1,0,22460,62,Female,White,50000-74999,Yes,BachelorDegree,BachelorDegree,AssociateDegree,15,Yes,Yes,36
10,h416285,752267,1662486859709,24,25,7,1,15722,62,Female,White,50000-74999,Yes,BachelorDegree,BachelorDegree,AssociateDegree,15,Yes,Yes,36
10,h416285,752267,1662486878340,25,26,2,1,18631,62,Female,White,50000-74999,Yes,BachelorDegree,BachelorDegree,AssociateDegree,15,Yes,Yes,36
10,h416285,752267,1662486890242,26,27,6,0,11902,62,Female,White,50000-74999,Yes,BachelorDegree,BachelorDegree,AssociateDegree,15,Yes,Yes,36
10,h416285,752267,1662486903373,27,28,4,0,13131,62,Female,White,50000-74999,Yes,BachelorDegree,BachelorDegree,AssociateDegree,15,Yes,Yes,36
10,h416285,752267,1662486936395,28,29,7,0,33022,62,Female,White,50000-74999,Yes,BachelorDegree,BachelorDegree,AssociateDegree,15,Yes,Yes,36
10,h416285,752267,1662486959713,29,30,7,0,23318,62,Female,White,50000-74999,Yes,BachelorDegree,BachelorDegree,AssociateDegree,15,Yes,Yes,36
10,h416285,752267,1662486979461,30,31,6,0,19747,62,Female,White,50000-74999,Yes,BachelorDegree,BachelorDegree,AssociateDegree,15,Yes,Yes,36
10,h416285,752267,1662487004238,31,32,3,0,24776,62,Female,White,50000-74999,Yes,BachelorDegree,BachelorDegree,AssociateDegree,15,Yes,Yes,36
10,h416285,752267,1662487026156,32,33,7,0,21917,62,Female,White,50000-74999,Yes,BachelorDegree,BachelorDegree,AssociateDegree,15,Yes,Yes,36
10,h416285,752267,1662487053225,33,34,5,0,27069,62,Female,White,50000-74999,Yes,BachelorDegree,BachelorDegree,AssociateDegree,15,Yes,Yes,36
10,h416285,752267,1662487071474,34,35,1,0,18249,62,Female,White,50000-74999,Yes,BachelorDegree,BachelorDegree,AssociateDegree,15,Yes,Yes,36
10,h416285,752267,1662487104980,35,36,5,0,33506,62,Female,White,50000-74999,Yes,BachelorDegree,BachelorDegree,AssociateDegree,15,Yes,Yes,36
11,y170010,461752,1662495449939,0,1,5,1,27433,31,Male,White,50000-74999,Yes,DoctoralDegree,BachelorDegree,SomeColl,28,No,Yes,36
11,y170010,461752,1662495463704,1,2,1,1,13765,31,Male,White,50000-74999,Yes,DoctoralDegree,BachelorDegree,SomeColl,28,No,Yes,36
11,y170010,461752,1662495480624,2,3,7,1,16920,31,Male,White,50000-74999,Yes,DoctoralDegree,BachelorDegree,SomeColl,28,No,Yes,36
11,y170010,461752,1662495493768,3,4,4,1,13144,31,Male,White,50000-74999,Yes,DoctoralDegree,BachelorDegree,SomeColl,28,No,Yes,36
11,y170010,461752,1662495505422,4,5,3,1,11654,31,Male,White,50000-74999,Yes,DoctoralDegree,BachelorDegree,SomeColl,28,No,Yes,36
11,y170010,461752,1662495511815,5,6,1,1,6393,31,Male,White,50000-74999,Yes,DoctoralDegree,BachelorDegree,SomeColl,28,No,Yes,36
11,y170010,461752,1662495525767,6,7,6,1,13952,31,Male,White,50000-74999,Yes,DoctoralDegree,BachelorDegree,SomeColl,28,No,Yes,36
11,y170010,461752,1662495557255,7,8,1,1,31487,31,Male,White,50000-74999,Yes,DoctoralDegree,BachelorDegree,SomeColl,28,No,Yes,36
11,y170010,461752,1662495582983,8,9,8,1,25728,31,Male,White,50000-74999,Yes,DoctoralDegree,BachelorDegree,SomeColl,28,No,Yes,36
11,y170010,461752,1662495594119,9,10,4,1,11136,31,Male,White,50000-74999,Yes,DoctoralDegree,BachelorDegree,SomeColl,28,No,Yes,36
11,y170010,461752,1662495607550,10,11,5,1,13431,31,Male,White,50000-74999,Yes,DoctoralDegree,BachelorDegree,SomeColl,28,No,Yes,36
11,y170010,461752,1662495641198,11,12,6,1,33647,31,Male,White,50000-74999,Yes,DoctoralDegree,BachelorDegree,SomeColl,28,No,Yes,36
11,y170010,461752,1662495673238,12,13,2,1,32040,31,Male,White,50000-74999,Yes,DoctoralDegree,BachelorDegree,SomeColl,28,No,Yes,36
11,y170010,461752,1662495697597,13,14,1,1,24359,31,Male,White,50000-74999,Yes,DoctoralDegree,BachelorDegree,SomeColl,28,No,Yes,36
11,y170010,461752,1662495723995,14,15,2,1,26397,31,Male,White,50000-74999,Yes,DoctoralDegree,BachelorDegree,SomeColl,28,No,Yes,36
11,y170010,461752,1662495748805,15,16,4,1,24809,31,Male,White,50000-74999,Yes,DoctoralDegree,BachelorDegree,SomeColl,28,No,Yes,36
11,y170010,461752,1662495766502,16,17,6,1,17696,31,Male,White,50000-74999,Yes,DoctoralDegree,BachelorDegree,SomeColl,28,No,Yes,36
11,y170010,461752,1662495785805,17,18,7,1,19303,31,Male,White,50000-74999,Yes,DoctoralDegree,BachelorDegree,SomeColl,28,No,Yes,36
11,y170010,461752,1662495805949,18,19,3,1,20143,31,Male,White,50000-74999,Yes,DoctoralDegree,BachelorDegree,SomeColl,28,No,Yes,36
11,y170010,461752,1662495873348,19,20,8,1,67399,31,Male,White,50000-74999,Yes,DoctoralDegree,BachelorDegree,SomeColl,28,No,Yes,36
11,y170010,461752,1662495910469,20,21,8,1,37120,31,Male,White,50000-74999,Yes,DoctoralDegree,BachelorDegree,SomeColl,28,No,Yes,36
11,y170010,461752,1662495927724,21,22,7,1,17254,31,Male,White,50000-74999,Yes,DoctoralDegree,BachelorDegree,SomeColl,28,No,Yes,36
11,y170010,461752,1662495953571,22,23,6,1,25847,31,Male,White,50000-74999,Yes,DoctoralDegree,BachelorDegree,SomeColl,28,No,Yes,36
11,y170010,461752,1662496014786,23,24,3,1,61215,31,Male,White,50000-74999,Yes,DoctoralDegree,BachelorDegree,SomeColl,28,No,Yes,36
11,y170010,461752,1662496047226,24,25,7,1,32439,31,Male,White,50000-74999,Yes,DoctoralDegree,BachelorDegree,SomeColl,28,No,Yes,36
11,y170010,461752,1662496100777,25,26,5,0,53551,31,Male,White,50000-74999,Yes,DoctoralDegree,BachelorDegree,SomeColl,28,No,Yes,36
11,y170010,461752,1662496157001,26,27,7,1,56223,31,Male,White,50000-74999,Yes,DoctoralDegree,BachelorDegree,SomeColl,28,No,Yes,36
11,y170010,461752,1662496224274,27,28,5,1,67273,31,Male,White,50000-74999,Yes,DoctoralDegree,BachelorDegree,SomeColl,28,No,Yes,36
11,y170010,461752,1662496258155,28,29,6,1,33881,31,Male,White,50000-74999,Yes,DoctoralDegree,BachelorDegree,SomeColl,28,No,Yes,36
11,y170010,461752,1662496322066,29,30,2,0,63911,31,Male,White,50000-74999,Yes,DoctoralDegree,BachelorDegree,SomeColl,28,No,Yes,36
11,y170010,461752,1662496374665,30,31,5,0,52598,31,Male,White,50000-74999,Yes,DoctoralDegree,BachelorDegree,SomeColl,28,No,Yes,36
11,y170010,461752,1662496427881,31,32,4,0,53215,31,Male,White,50000-74999,Yes,DoctoralDegree,BachelorDegree,SomeColl,28,No,Yes,36
11,y170010,461752,1662496528744,32,33,8,0,100863,31,Male,White,50000-74999,Yes,DoctoralDegree,BachelorDegree,SomeColl,28,No,Yes,36
11,y170010,461752,1662496559776,33,34,8,0,31032,31,Male,White,50000-74999,Yes,DoctoralDegree,BachelorDegree,SomeColl,28,No,Yes,36
11,y170010,461752,1662496583191,34,35,3,1,23415,31,Male,White,50000-74999,Yes,DoctoralDegree,BachelorDegree,SomeColl,28,No,Yes,36
11,y170010,461752,1662496622527,35,36,8,0,39336,31,Male,White,50000-74999,Yes,DoctoralDegree,BachelorDegree,SomeColl,28,No,Yes,36
12,l424507,330447,1662495594672,0,1,8,0,26847,55,Male,White,16000-24999,No,BachelorDegree,SomeColl,SomeColl,0,No,No,36
12,l424507,330447,1662495617904,1,2,2,0,23232,55,Male,White,16000-24999,No,BachelorDegree,SomeColl,SomeColl,0,No,No,36
12,l424507,330447,1662495644585,2,3,7,1,26681,55,Male,White,16000-24999,No,BachelorDegree,SomeColl,SomeColl,0,No,No,36
12,l424507,330447,1662495672166,3,4,5,0,27580,55,Male,White,16000-24999,No,BachelorDegree,SomeColl,SomeColl,0,No,No,36
12,l424507,330447,1662495683828,4,5,8,0,11662,55,Male,White,16000-24999,No,BachelorDegree,SomeColl,SomeColl,0,No,No,36
12,l424507,330447,1662495692330,5,6,2,0,8502,55,Male,White,16000-24999,No,BachelorDegree,SomeColl,SomeColl,0,No,No,36
12,l424507,330447,1662495721830,6,7,2,0,29500,55,Male,White,16000-24999,No,BachelorDegree,SomeColl,SomeColl,0,No,No,36
12,l424507,330447,1662495758485,7,8,1,1,36654,55,Male,White,16000-24999,No,BachelorDegree,SomeColl,SomeColl,0,No,No,36
12,l424507,330447,1662495796049,8,9,4,0,37563,55,Male,White,16000-24999,No,BachelorDegree,SomeColl,SomeColl,0,No,No,36
12,l424507,330447,1662495810374,9,10,8,0,14324,55,Male,White,16000-24999,No,BachelorDegree,SomeColl,SomeColl,0,No,No,36
12,l424507,330447,1662495864050,10,11,8,0,53676,55,Male,White,16000-24999,No,BachelorDegree,SomeColl,SomeColl,0,No,No,36
12,l424507,330447,1662495899973,11,12,7,0,35923,55,Male,White,16000-24999,No,BachelorDegree,SomeColl,SomeColl,0,No,No,36
12,l424507,330447,1662495929546,12,13,2,1,29573,55,Male,White,16000-24999,No,BachelorDegree,SomeColl,SomeColl,0,No,No,36
12,l424507,330447,1662495991491,13,14,7,0,61945,55,Male,White,16000-24999,No,BachelorDegree,SomeColl,SomeColl,0,No,No,36
12,l424507,330447,1662496045839,14,15,6,0,54347,55,Male,White,16000-24999,No,BachelorDegree,SomeColl,SomeColl,0,No,No,36
12,l424507,330447,1662496054804,15,16,4,1,8965,55,Male,White,16000-24999,No,BachelorDegree,SomeColl,SomeColl,0,No,No,36
12,l424507,330447,1662496068863,16,17,4,0,14059,55,Male,White,16000-24999,No,BachelorDegree,SomeColl,SomeColl,0,No,No,36
12,l424507,330447,1662496085009,17,18,5,0,16146,55,Male,White,16000-24999,No,BachelorDegree,SomeColl,SomeColl,0,No,No,36
12,l424507,330447,1662496093428,18,19,8,0,8419,55,Male,White,16000-24999,No,BachelorDegree,SomeColl,SomeColl,0,No,No,36
12,l424507,330447,1662496117724,19,20,4,0,24296,55,Male,White,16000-24999,No,BachelorDegree,SomeColl,SomeColl,0,No,No,36
12,l424507,330447,1662496148266,20,21,8,1,30541,55,Male,White,16000-24999,No,BachelorDegree,SomeColl,SomeColl,0,No,No,36
12,l424507,330447,1662496166168,21,22,8,0,17902,55,Male,White,16000-24999,No,BachelorDegree,SomeColl,SomeColl,0,No,No,36
12,l424507,330447,1662496215840,22,23,2,0,49672,55,Male,White,16000-24999,No,BachelorDegree,SomeColl,SomeColl,0,No,No,36
12,l424507,330447,1662496259025,23,24,2,0,43185,55,Male,White,16000-24999,No,BachelorDegree,SomeColl,SomeColl,0,No,No,36
12,l424507,330447,1662496291906,24,25,1,0,32881,55,Male,White,16000-24999,No,BachelorDegree,SomeColl,SomeColl,0,No,No,36
12,l424507,330447,1662496334071,25,26,8,0,42165,55,Male,White,16000-24999,No,BachelorDegree,SomeColl,SomeColl,0,No,No,36
12,l424507,330447,1662496379131,26,27,1,0,45060,55,Male,White,16000-24999,No,BachelorDegree,SomeColl,SomeColl,0,No,No,36
12,l424507,330447,1662496518051,27,28,8,0,138920,55,Male,White,16000-24999,No,BachelorDegree,SomeColl,SomeColl,0,No,No,36
12,l424507,330447,1662496552607,28,29,3,0,34556,55,Male,White,16000-24999,No,BachelorDegree,SomeColl,SomeColl,0,No,No,36
12,l424507,330447,1662496667316,29,30,5,1,114709,55,Male,White,16000-24999,No,BachelorDegree,SomeColl,SomeColl,0,No,No,36
12,l424507,330447,1662496693093,30,31,7,0,25777,55,Male,White,16000-24999,No,BachelorDegree,SomeColl,SomeColl,0,No,No,36
12,l424507,330447,1662496722514,31,32,1,0,29421,55,Male,White,16000-24999,No,BachelorDegree,SomeColl,SomeColl,0,No,No,36
12,l424507,330447,1662496755307,32,33,3,0,32793,55,Male,White,16000-24999,No,BachelorDegree,SomeColl,SomeColl,0,No,No,36
12,l424507,330447,1662496902587,33,34,2,0,147280,55,Male,White,16000-24999,No,BachelorDegree,SomeColl,SomeColl,0,No,No,36
12,l424507,330447,1662497070444,34,35,1,0,167857,55,Male,White,16000-24999,No,BachelorDegree,SomeColl,SomeColl,0,No,No,36
12,l424507,330447,1662497127568,35,36,6,0,57124,55,Male,White,16000-24999,No,BachelorDegree,SomeColl,SomeColl,0,No,No,36
13,f728054,354516,1662496057318,0,1,5,1,38269,33,Other,White,16000-24999,No,BachelorDegree,SomeHS,GradHS,26,Yes,Yes,36
13,f728054,354516,1662496073852,1,2,1,1,16534,33,Other,White,16000-24999,No,BachelorDegree,SomeHS,GradHS,26,Yes,Yes,36
13,f728054,354516,1662496085078,2,3,7,1,11226,33,Other,White,16000-24999,No,BachelorDegree,SomeHS,GradHS,26,Yes,Yes,36
13,f728054,354516,1662496093067,3,4,4,1,7989,33,Other,White,16000-24999,No,BachelorDegree,SomeHS,GradHS,26,Yes,Yes,36
13,f728054,354516,1662496102611,4,5,5,0,9544,33,Other,White,16000-24999,No,BachelorDegree,SomeHS,GradHS,26,Yes,Yes,36
13,f728054,354516,1662496109831,5,6,1,1,7220,33,Other,White,16000-24999,No,BachelorDegree,SomeHS,GradHS,26,Yes,Yes,36
13,f728054,354516,1662496120494,6,7,2,0,10663,33,Other,White,16000-24999,No,BachelorDegree,SomeHS,GradHS,26,Yes,Yes,36
13,f728054,354516,1662496149777,7,8,1,1,29283,33,Other,White,16000-24999,No,BachelorDegree,SomeHS,GradHS,26,Yes,Yes,36
13,f728054,354516,1662496156686,8,9,8,1,6909,33,Other,White,16000-24999,No,BachelorDegree,SomeHS,GradHS,26,Yes,Yes,36
13,f728054,354516,1662496166711,9,10,7,0,10025,33,Other,White,16000-24999,No,BachelorDegree,SomeHS,GradHS,26,Yes,Yes,36
13,f728054,354516,1662496202919,10,11,1,0,36208,33,Other,White,16000-24999,No,BachelorDegree,SomeHS,GradHS,26,Yes,Yes,36
13,f728054,354516,1662496221576,11,12,6,1,18657,33,Other,White,16000-24999,No,BachelorDegree,SomeHS,GradHS,26,Yes,Yes,36
13,f728054,354516,1662496241467,12,13,8,0,19890,33,Other,White,16000-24999,No,BachelorDegree,SomeHS,GradHS,26,Yes,Yes,36
13,f728054,354516,1662496255005,13,14,1,1,13538,33,Other,White,16000-24999,No,BachelorDegree,SomeHS,GradHS,26,Yes,Yes,36
13,f728054,354516,1662496288871,14,15,8,0,33866,33,Other,White,16000-24999,No,BachelorDegree,SomeHS,GradHS,26,Yes,Yes,36
13,f728054,354516,1662496298599,15,16,4,1,9728,33,Other,White,16000-24999,No,BachelorDegree,SomeHS,GradHS,26,Yes,Yes,36
13,f728054,354516,1662496319724,16,17,6,1,21125,33,Other,White,16000-24999,No,BachelorDegree,SomeHS,GradHS,26,Yes,Yes,36
13,f728054,354516,1662496328902,17,18,7,1,9178,33,Other,White,16000-24999,No,BachelorDegree,SomeHS,GradHS,26,Yes,Yes,36
13,f728054,354516,1662496348942,18,19,3,1,20040,33,Other,White,16000-24999,No,BachelorDegree,SomeHS,GradHS,26,Yes,Yes,36
13,f728054,354516,1662496369698,19,20,2,0,20756,33,Other,White,16000-24999,No,BachelorDegree,SomeHS,GradHS,26,Yes,Yes,36
13,f728054,354516,1662496394124,20,21,4,0,24426,33,Other,White,16000-24999,No,BachelorDegree,SomeHS,GradHS,26,Yes,Yes,36
13,f728054,354516,1662496407854,21,22,7,1,13730,33,Other,White,16000-24999,No,BachelorDegree,SomeHS,GradHS,26,Yes,Yes,36
13,f728054,354516,1662496431678,22,23,6,1,23823,33,Other,White,16000-24999,No,BachelorDegree,SomeHS,GradHS,26,Yes,Yes,36
13,f728054,354516,1662496497670,23,24,6,0,65992,33,Other,White,16000-24999,No,BachelorDegree,SomeHS,GradHS,26,Yes,Yes,36
13,f728054,354516,1662496518815,24,25,8,0,21145,33,Other,White,16000-24999,No,BachelorDegree,SomeHS,GradHS,26,Yes,Yes,36
13,f728054,354516,1662496561805,25,26,2,1,42990,33,Other,White,16000-24999,No,BachelorDegree,SomeHS,GradHS,26,Yes,Yes,36
13,f728054,354516,1662496584989,26,27,6,0,23184,33,Other,White,16000-24999,No,BachelorDegree,SomeHS,GradHS,26,Yes,Yes,36
13,f728054,354516,1662496606586,27,28,3,0,21597,33,Other,White,16000-24999,No,BachelorDegree,SomeHS,GradHS,26,Yes,Yes,36
13,f728054,354516,1662496619303,28,29,4,0,12717,33,Other,White,16000-24999,No,BachelorDegree,SomeHS,GradHS,26,Yes,Yes,36
13,f728054,354516,1662496627992,29,30,5,1,8689,33,Other,White,16000-24999,No,BachelorDegree,SomeHS,GradHS,26,Yes,Yes,36
13,f728054,354516,1662496631054,30,31,7,0,3062,33,Other,White,16000-24999,No,BachelorDegree,SomeHS,GradHS,26,Yes,Yes,36
13,f728054,354516,1662496633437,31,32,6,0,2383,33,Other,White,16000-24999,No,BachelorDegree,SomeHS,GradHS,26,Yes,Yes,36
13,f728054,354516,1662496635652,32,33,8,0,2215,33,Other,White,16000-24999,No,BachelorDegree,SomeHS,GradHS,26,Yes,Yes,36
13,f728054,354516,1662496637334,33,34,2,0,1682,33,Other,White,16000-24999,No,BachelorDegree,SomeHS,GradHS,26,Yes,Yes,36
13,f728054,354516,1662496639172,34,35,1,0,1838,33,Other,White,16000-24999,No,BachelorDegree,SomeHS,GradHS,26,Yes,Yes,36
13,f728054,354516,1662496640990,35,36,6,0,1818,33,Other,White,16000-24999,No,BachelorDegree,SomeHS,GradHS,26,Yes,Yes,36
14,l052301,549850,1662496528577,0,1,5,1,13620,32,Male,White,35000-49999,Yes,MastersDegree,BachelorDegree,BachelorDegree,34,Yes,Yes,36
14,l052301,549850,1662496540442,1,2,1,1,11865,32,Male,White,35000-49999,Yes,MastersDegree,BachelorDegree,BachelorDegree,34,Yes,Yes,36
14,l052301,549850,1662496551251,2,3,7,1,10809,32,Male,White,35000-49999,Yes,MastersDegree,BachelorDegree,BachelorDegree,34,Yes,Yes,36
14,l052301,549850,1662496556539,3,4,4,1,5288,32,Male,White,35000-49999,Yes,MastersDegree,BachelorDegree,BachelorDegree,34,Yes,Yes,36
14,l052301,549850,1662496562268,4,5,3,1,5729,32,Male,White,35000-49999,Yes,MastersDegree,BachelorDegree,BachelorDegree,34,Yes,Yes,36
14,l052301,549850,1662496577462,5,6,1,1,15194,32,Male,White,35000-49999,Yes,MastersDegree,BachelorDegree,BachelorDegree,34,Yes,Yes,36
14,l052301,549850,1662496591896,6,7,6,1,14434,32,Male,White,35000-49999,Yes,MastersDegree,BachelorDegree,BachelorDegree,34,Yes,Yes,36
14,l052301,549850,1662496603969,7,8,1,1,12073,32,Male,White,35000-49999,Yes,MastersDegree,BachelorDegree,BachelorDegree,34,Yes,Yes,36
14,l052301,549850,1662496609706,8,9,8,1,5737,32,Male,White,35000-49999,Yes,MastersDegree,BachelorDegree,BachelorDegree,34,Yes,Yes,36
14,l052301,549850,1662496617539,9,10,4,1,7833,32,Male,White,35000-49999,Yes,MastersDegree,BachelorDegree,BachelorDegree,34,Yes,Yes,36
14,l052301,549850,1662496624243,10,11,5,1,6704,32,Male,White,35000-49999,Yes,MastersDegree,BachelorDegree,BachelorDegree,34,Yes,Yes,36
14,l052301,549850,1662496630996,11,12,6,1,6752,32,Male,White,35000-49999,Yes,MastersDegree,BachelorDegree,BachelorDegree,34,Yes,Yes,36
14,l052301,549850,1662496652422,12,13,2,1,21426,32,Male,White,35000-49999,Yes,MastersDegree,BachelorDegree,BachelorDegree,34,Yes,Yes,36
14,l052301,549850,1662496680537,13,14,1,1,28115,32,Male,White,35000-49999,Yes,MastersDegree,BachelorDegree,BachelorDegree,34,Yes,Yes,36
14,l052301,549850,1662496707213,14,15,2,1,26675,32,Male,White,35000-49999,Yes,MastersDegree,BachelorDegree,BachelorDegree,34,Yes,Yes,36
14,l052301,549850,1662496713917,15,16,4,1,6704,32,Male,White,35000-49999,Yes,MastersDegree,BachelorDegree,BachelorDegree,34,Yes,Yes,36
14,l052301,549850,1662496758307,16,17,6,1,44390,32,Male,White,35000-49999,Yes,MastersDegree,BachelorDegree,BachelorDegree,34,Yes,Yes,36
14,l052301,549850,1662496768627,17,18,7,1,10320,32,Male,White,35000-49999,Yes,MastersDegree,BachelorDegree,BachelorDegree,34,Yes,Yes,36
14,l052301,549850,1662496808456,18,19,5,0,39829,32,Male,White,35000-49999,Yes,MastersDegree,BachelorDegree,BachelorDegree,34,Yes,Yes,36
14,l052301,549850,1662496876376,19,20,8,1,67920,32,Male,White,35000-49999,Yes,MastersDegree,BachelorDegree,BachelorDegree,34,Yes,Yes,36
14,l052301,549850,1662496892785,20,21,8,1,16409,32,Male,White,35000-49999,Yes,MastersDegree,BachelorDegree,BachelorDegree,34,Yes,Yes,36
14,l052301,549850,1662496901634,21,22,7,1,8849,32,Male,White,35000-49999,Yes,MastersDegree,BachelorDegree,BachelorDegree,34,Yes,Yes,36
14,l052301,549850,1662496919396,22,23,6,1,17762,32,Male,White,35000-49999,Yes,MastersDegree,BachelorDegree,BachelorDegree,34,Yes,Yes,36
14,l052301,549850,1662496961753,23,24,3,1,42357,32,Male,White,35000-49999,Yes,MastersDegree,BachelorDegree,BachelorDegree,34,Yes,Yes,36
14,l052301,549850,1662496993133,24,25,7,1,31380,32,Male,White,35000-49999,Yes,MastersDegree,BachelorDegree,BachelorDegree,34,Yes,Yes,36
14,l052301,549850,1662497031241,25,26,2,1,38108,32,Male,White,35000-49999,Yes,MastersDegree,BachelorDegree,BachelorDegree,34,Yes,Yes,36
14,l052301,549850,1662497049139,26,27,7,1,17898,32,Male,White,35000-49999,Yes,MastersDegree,BachelorDegree,BachelorDegree,34,Yes,Yes,36
14,l052301,549850,1662497199796,27,28,5,1,150657,32,Male,White,35000-49999,Yes,MastersDegree,BachelorDegree,BachelorDegree,34,Yes,Yes,36
14,l052301,549850,1662497204308,28,29,6,1,4512,32,Male,White,35000-49999,Yes,MastersDegree,BachelorDegree,BachelorDegree,34,Yes,Yes,36
14,l052301,549850,1662497209220,29,30,5,1,4912,32,Male,White,35000-49999,Yes,MastersDegree,BachelorDegree,BachelorDegree,34,Yes,Yes,36
14,l052301,549850,1662497212229,30,31,4,1,3008,32,Male,White,35000-49999,Yes,MastersDegree,BachelorDegree,BachelorDegree,34,Yes,Yes,36
14,l052301,549850,1662497217685,31,32,8,1,5456,32,Male,White,35000-49999,Yes,MastersDegree,BachelorDegree,BachelorDegree,34,Yes,Yes,36
14,l052301,549850,1662497236792,32,33,5,1,19107,32,Male,White,35000-49999,Yes,MastersDegree,BachelorDegree,BachelorDegree,34,Yes,Yes,36
14,l052301,549850,1662497267220,33,34,1,1,30428,32,Male,White,35000-49999,Yes,MastersDegree,BachelorDegree,BachelorDegree,34,Yes,Yes,36
14,l052301,549850,1662497298664,34,35,6,0,31444,32,Male,White,35000-49999,Yes,MastersDegree,BachelorDegree,BachelorDegree,34,Yes,Yes,36
14,l052301,549850,1662497305256,35,36,2,1,6592,32,Male,White,35000-49999,Yes,MastersDegree,BachelorDegree,BachelorDegree,34,Yes,Yes,36
15,p013209,187279,1662496642709,0,1,5,1,34375,52,Male,White,12000-15999,No,BachelorDegree,MastersDegree,BachelorDegree,15,No,Yes,36
15,p013209,187279,1662496674964,1,2,1,1,32254,52,Male,White,12000-15999,No,BachelorDegree,MastersDegree,BachelorDegree,15,No,Yes,36
15,p013209,187279,1662496688147,2,3,7,1,13183,52,Male,White,12000-15999,No,BachelorDegree,MastersDegree,BachelorDegree,15,No,Yes,36
15,p013209,187279,1662496705652,3,4,4,1,17504,52,Male,White,12000-15999,No,BachelorDegree,MastersDegree,BachelorDegree,15,No,Yes,36
15,p013209,187279,1662496718074,4,5,3,1,12421,52,Male,White,12000-15999,No,BachelorDegree,MastersDegree,BachelorDegree,15,No,Yes,36
15,p013209,187279,1662496725474,5,6,1,1,7399,52,Male,White,12000-15999,No,BachelorDegree,MastersDegree,BachelorDegree,15,No,Yes,36
15,p013209,187279,1662496756287,6,7,6,1,30812,52,Male,White,12000-15999,No,BachelorDegree,MastersDegree,BachelorDegree,15,No,Yes,36
15,p013209,187279,1662496790590,7,8,1,1,34301,52,Male,White,12000-15999,No,BachelorDegree,MastersDegree,BachelorDegree,15,No,Yes,36
15,p013209,187279,1662496806382,8,9,8,1,15792,52,Male,White,12000-15999,No,BachelorDegree,MastersDegree,BachelorDegree,15,No,Yes,36
15,p013209,187279,1662496823188,9,10,4,1,16805,52,Male,White,12000-15999,No,BachelorDegree,MastersDegree,BachelorDegree,15,No,Yes,36
15,p013209,187279,1662496849197,10,11,5,1,26009,52,Male,White,12000-15999,No,BachelorDegree,MastersDegree,BachelorDegree,15,No,Yes,36
15,p013209,187279,1662496868883,11,12,6,1,19685,52,Male,White,12000-15999,No,BachelorDegree,MastersDegree,BachelorDegree,15,No,Yes,36
15,p013209,187279,1662496894701,12,13,2,1,25818,52,Male,White,12000-15999,No,BachelorDegree,MastersDegree,BachelorDegree,15,No,Yes,36
15,p013209,187279,1662496910011,13,14,1,1,15310,52,Male,White,12000-15999,No,BachelorDegree,MastersDegree,BachelorDegree,15,No,Yes,36
15,p013209,187279,1662496968284,14,15,3,0,58273,52,Male,White,12000-15999,No,BachelorDegree,MastersDegree,BachelorDegree,15,No,Yes,36
15,p013209,187279,1662497003085,15,16,4,1,34800,52,Male,White,12000-15999,No,BachelorDegree,MastersDegree,BachelorDegree,15,No,Yes,36
15,p013209,187279,1662497017764,16,17,6,1,14679,52,Male,White,12000-15999,No,BachelorDegree,MastersDegree,BachelorDegree,15,No,Yes,36
15,p013209,187279,1662497055350,17,18,7,1,37585,52,Male,White,12000-15999,No,BachelorDegree,MastersDegree,BachelorDegree,15,No,Yes,36
15,p013209,187279,1662497070461,18,19,3,1,15110,52,Male,White,12000-15999,No,BachelorDegree,MastersDegree,BachelorDegree,15,No,Yes,36
15,p013209,187279,1662497098404,19,20,2,0,27942,52,Male,White,12000-15999,No,BachelorDegree,MastersDegree,BachelorDegree,15,No,Yes,36
15,p013209,187279,1662497125571,20,21,8,1,27166,52,Male,White,12000-15999,No,BachelorDegree,MastersDegree,BachelorDegree,15,No,Yes,36
15,p013209,187279,1662497191781,21,22,8,0,66209,52,Male,White,12000-15999,No,BachelorDegree,MastersDegree,BachelorDegree,15,No,Yes,36
15,p013209,187279,1662497231195,22,23,2,0,39413,52,Male,White,12000-15999,No,BachelorDegree,MastersDegree,BachelorDegree,15,No,Yes,36
15,p013209,187279,1662497266293,23,24,2,0,35097,52,Male,White,12000-15999,No,BachelorDegree,MastersDegree,BachelorDegree,15,No,Yes,36
15,p013209,187279,1662497329493,24,25,4,0,63199,52,Male,White,12000-15999,No,BachelorDegree,MastersDegree,BachelorDegree,15,No,Yes,36
15,p013209,187279,1662497375149,25,26,2,1,45656,52,Male,White,12000-15999,No,BachelorDegree,MastersDegree,BachelorDegree,15,No,Yes,36
15,p013209,187279,1662497420075,26,27,5,0,44926,52,Male,White,12000-15999,No,BachelorDegree,MastersDegree,BachelorDegree,15,No,Yes,36
15,p013209,187279,1662497452295,27,28,7,0,32220,52,Male,White,12000-15999,No,BachelorDegree,MastersDegree,BachelorDegree,15,No,Yes,36
15,p013209,187279,1662497475035,28,29,8,0,22739,52,Male,White,12000-15999,No,BachelorDegree,MastersDegree,BachelorDegree,15,No,Yes,36
15,p013209,187279,1662497513155,29,30,4,0,38120,52,Male,White,12000-15999,No,BachelorDegree,MastersDegree,BachelorDegree,15,No,Yes,36
15,p013209,187279,1662497610019,30,31,3,0,96864,52,Male,White,12000-15999,No,BachelorDegree,MastersDegree,BachelorDegree,15,No,Yes,36
15,p013209,187279,1662497644773,31,32,8,1,34754,52,Male,White,12000-15999,No,BachelorDegree,MastersDegree,BachelorDegree,15,No,Yes,36
15,p013209,187279,1662497824083,32,33,5,1,179309,52,Male,White,12000-15999,No,BachelorDegree,MastersDegree,BachelorDegree,15,No,Yes,36
15,p013209,187279,1662497878027,33,34,1,1,53944,52,Male,White,12000-15999,No,BachelorDegree,MastersDegree,BachelorDegree,15,No,Yes,36
15,p013209,187279,1662497927261,34,35,2,0,49234,52,Male,White,12000-15999,No,BachelorDegree,MastersDegree,BachelorDegree,15,No,Yes,36
15,p013209,187279,1662497947963,35,36,1,0,20701,52,Male,White,12000-15999,No,BachelorDegree,MastersDegree,BachelorDegree,15,No,Yes,36
16,u068199,266259,1662496922102,0,1,5,1,38301,51,Male,Black or African American,75000-99999,No,AssociateDegree,SomeHS,SomeColl,20,No,No,35
16,u068199,266259,1662496963055,1,2,1,1,40953,51,Male,Black or African American,75000-99999,No,AssociateDegree,SomeHS,SomeColl,20,No,No,35
16,u068199,266259,1662497024519,2,3,1,0,61464,51,Male,Black or African American,75000-99999,No,AssociateDegree,SomeHS,SomeColl,20,No,No,35
16,u068199,266259,1662497057170,3,4,4,1,32651,51,Male,Black or African American,75000-99999,No,AssociateDegree,SomeHS,SomeColl,20,No,No,35
16,u068199,266259,1662497086685,4,5,3,1,29515,51,Male,Black or African American,75000-99999,No,AssociateDegree,SomeHS,SomeColl,20,No,No,35
16,u068199,266259,1662497101638,5,6,1,1,14953,51,Male,Black or African American,75000-99999,No,AssociateDegree,SomeHS,SomeColl,20,No,No,35
16,u068199,266259,1662497150373,6,7,6,1,48735,51,Male,Black or African American,75000-99999,No,AssociateDegree,SomeHS,SomeColl,20,No,No,35
16,u068199,266259,1662497194720,7,8,1,1,44347,51,Male,Black or African American,75000-99999,No,AssociateDegree,SomeHS,SomeColl,20,No,No,35
16,u068199,266259,1662497226814,8,9,8,1,32094,51,Male,Black or African American,75000-99999,No,AssociateDegree,SomeHS,SomeColl,20,No,No,35
16,u068199,266259,1662497294574,9,10,4,1,67760,51,Male,Black or African American,75000-99999,No,AssociateDegree,SomeHS,SomeColl,20,No,No,35
16,u068199,266259,1662497366022,10,11,7,0,71448,51,Male,Black or African American,75000-99999,No,AssociateDegree,SomeHS,SomeColl,20,No,No,35
16,u068199,266259,1662497419916,11,12,6,1,53893,51,Male,Black or African American,75000-99999,No,AssociateDegree,SomeHS,SomeColl,20,No,No,35
16,u068199,266259,1662497494735,12,13,6,0,74819,51,Male,Black or African American,75000-99999,No,AssociateDegree,SomeHS,SomeColl,20,No,No,35
16,u068199,266259,1662497540777,13,14,1,1,46042,51,Male,Black or African American,75000-99999,No,AssociateDegree,SomeHS,SomeColl,20,No,No,35
16,u068199,266259,1662497698837,14,15,8,0,158060,51,Male,Black or African American,75000-99999,No,AssociateDegree,SomeHS,SomeColl,20,No,No,35
16,u068199,266259,1662497918142,15,16,5,0,219305,51,Male,Black or African American,75000-99999,No,AssociateDegree,SomeHS,SomeColl,20,No,No,35
16,u068199,266259,1662497977843,16,17,6,1,59701,51,Male,Black or African American,75000-99999,No,AssociateDegree,SomeHS,SomeColl,20,No,No,35
16,u068199,266259,1662498133583,17,18,2,0,155740,51,Male,Black or African American,75000-99999,No,AssociateDegree,SomeHS,SomeColl,20,No,No,35
16,u068199,266259,1662498161126,18,19,3,1,27542,51,Male,Black or African American,75000-99999,No,AssociateDegree,SomeHS,SomeColl,20,No,No,35
16,u068199,266259,1662498240371,19,20,2,0,79245,51,Male,Black or African American,75000-99999,No,AssociateDegree,SomeHS,SomeColl,20,No,No,35
16,u068199,266259,1662498347737,20,21,1,0,107366,51,Male,Black or African American,75000-99999,No,AssociateDegree,SomeHS,SomeColl,20,No,No,35
16,u068199,266259,1662498448100,21,22,8,0,100363,51,Male,Black or African American,75000-99999,No,AssociateDegree,SomeHS,SomeColl,20,No,No,35
16,u068199,266259,1662498605095,22,23,2,0,156995,51,Male,Black or African American,75000-99999,No,AssociateDegree,SomeHS,SomeColl,20,No,No,35
16,u068199,266259,1662498822530,23,24,8,0,217435,51,Male,Black or African American,75000-99999,No,AssociateDegree,SomeHS,SomeColl,20,No,No,35
16,u068199,266259,1662498844994,24,25,2,0,22464,51,Male,Black or African American,75000-99999,No,AssociateDegree,SomeHS,SomeColl,20,No,No,35
16,u068199,266259,1662498909781,25,26,6,0,64787,51,Male,Black or African American,75000-99999,No,AssociateDegree,SomeHS,SomeColl,20,No,No,35
16,u068199,266259,1662498961813,26,27,4,0,52031,51,Male,Black or African American,75000-99999,No,AssociateDegree,SomeHS,SomeColl,20,No,No,35
16,u068199,266259,1662499010091,27,28,1,0,48278,51,Male,Black or African American,75000-99999,No,AssociateDegree,SomeHS,SomeColl,20,No,No,35
16,u068199,266259,1662499072658,28,29,7,0,62566,51,Male,Black or African American,75000-99999,No,AssociateDegree,SomeHS,SomeColl,20,No,No,35
16,u068199,266259,1662499130200,29,30,2,0,57541,51,Male,Black or African American,75000-99999,No,AssociateDegree,SomeHS,SomeColl,20,No,No,35
16,u068199,266259,1662499148928,30,31,3,0,18728,51,Male,Black or African American,75000-99999,No,AssociateDegree,SomeHS,SomeColl,20,No,No,35
16,u068199,266259,1662499165400,31,32,7,0,16471,51,Male,Black or African American,75000-99999,No,AssociateDegree,SomeHS,SomeColl,20,No,No,35
16,u068199,266259,1662499180221,32,33,3,0,14821,51,Male,Black or African American,75000-99999,No,AssociateDegree,SomeHS,SomeColl,20,No,No,35
16,u068199,266259,1662499253996,33,34,4,0,73775,51,Male,Black or African American,75000-99999,No,AssociateDegree,SomeHS,SomeColl,20,No,No,35
16,u068199,266259,1662499278901,34,35,1,0,24905,51,Male,Black or African American,75000-99999,No,AssociateDegree,SomeHS,SomeColl,20,No,No,35
16,u068199,266259,1662499278901,34,35,1,0,24905,51,Male,Black or African American,75000-99999,No,AssociateDegree,SomeHS,SomeColl,20,No,No,35
16,u068199,266259,NA,35,36,NA,0,NA,51,Male,Black or African American,75000-99999,No,AssociateDegree,SomeHS,SomeColl,20,No,No,35
17,v426638,691256,1662496853324,0,1,5,1,22427,32,Female,Asian,35000-49999,No,AssociateDegree,SomeColl,SomeHS,20,Yes,No,36
17,v426638,691256,1662496866534,1,2,1,1,13210,32,Female,Asian,35000-49999,No,AssociateDegree,SomeColl,SomeHS,20,Yes,No,36
17,v426638,691256,1662496878899,2,3,7,1,12365,32,Female,Asian,35000-49999,No,AssociateDegree,SomeColl,SomeHS,20,Yes,No,36
17,v426638,691256,1662496899257,3,4,4,1,20358,32,Female,Asian,35000-49999,No,AssociateDegree,SomeColl,SomeHS,20,Yes,No,36
17,v426638,691256,1662496920871,4,5,3,1,21614,32,Female,Asian,35000-49999,No,AssociateDegree,SomeColl,SomeHS,20,Yes,No,36
17,v426638,691256,1662496930625,5,6,1,1,9753,32,Female,Asian,35000-49999,No,AssociateDegree,SomeColl,SomeHS,20,Yes,No,36
17,v426638,691256,1662496942046,6,7,6,1,11420,32,Female,Asian,35000-49999,No,AssociateDegree,SomeColl,SomeHS,20,Yes,No,36
17,v426638,691256,1662496976406,7,8,1,1,34359,32,Female,Asian,35000-49999,No,AssociateDegree,SomeColl,SomeHS,20,Yes,No,36
17,v426638,691256,1662496984394,8,9,8,1,7987,32,Female,Asian,35000-49999,No,AssociateDegree,SomeColl,SomeHS,20,Yes,No,36
17,v426638,691256,1662497053920,9,10,2,0,69526,32,Female,Asian,35000-49999,No,AssociateDegree,SomeColl,SomeHS,20,Yes,No,36
17,v426638,691256,1662497063488,10,11,5,1,9567,32,Female,Asian,35000-49999,No,AssociateDegree,SomeColl,SomeHS,20,Yes,No,36
17,v426638,691256,1662497077321,11,12,6,1,13832,32,Female,Asian,35000-49999,No,AssociateDegree,SomeColl,SomeHS,20,Yes,No,36
17,v426638,691256,1662497097902,12,13,5,0,20581,32,Female,Asian,35000-49999,No,AssociateDegree,SomeColl,SomeHS,20,Yes,No,36
17,v426638,691256,1662497140668,13,14,1,1,42765,32,Female,Asian,35000-49999,No,AssociateDegree,SomeColl,SomeHS,20,Yes,No,36
17,v426638,691256,1662497174298,14,15,2,1,33630,32,Female,Asian,35000-49999,No,AssociateDegree,SomeColl,SomeHS,20,Yes,No,36
17,v426638,691256,1662497217807,15,16,7,0,43509,32,Female,Asian,35000-49999,No,AssociateDegree,SomeColl,SomeHS,20,Yes,No,36
17,v426638,691256,1662497228746,16,17,6,1,10938,32,Female,Asian,35000-49999,No,AssociateDegree,SomeColl,SomeHS,20,Yes,No,36
17,v426638,691256,1662497252705,17,18,1,0,23959,32,Female,Asian,35000-49999,No,AssociateDegree,SomeColl,SomeHS,20,Yes,No,36
17,v426638,691256,1662497274738,18,19,3,1,22033,32,Female,Asian,35000-49999,No,AssociateDegree,SomeColl,SomeHS,20,Yes,No,36
17,v426638,691256,1662497322114,19,20,2,0,47376,32,Female,Asian,35000-49999,No,AssociateDegree,SomeColl,SomeHS,20,Yes,No,36
17,v426638,691256,1662497346341,20,21,4,0,24227,32,Female,Asian,35000-49999,No,AssociateDegree,SomeColl,SomeHS,20,Yes,No,36
17,v426638,691256,1662497373737,21,22,7,1,27395,32,Female,Asian,35000-49999,No,AssociateDegree,SomeColl,SomeHS,20,Yes,No,36
17,v426638,691256,1662497432821,22,23,6,1,59083,32,Female,Asian,35000-49999,No,AssociateDegree,SomeColl,SomeHS,20,Yes,No,36
17,v426638,691256,1662497469002,23,24,1,0,36181,32,Female,Asian,35000-49999,No,AssociateDegree,SomeColl,SomeHS,20,Yes,No,36
17,v426638,691256,1662497507116,24,25,7,1,38114,32,Female,Asian,35000-49999,No,AssociateDegree,SomeColl,SomeHS,20,Yes,No,36
17,v426638,691256,1662497563478,25,26,2,1,56361,32,Female,Asian,35000-49999,No,AssociateDegree,SomeColl,SomeHS,20,Yes,No,36
17,v426638,691256,1662497580119,26,27,6,0,16641,32,Female,Asian,35000-49999,No,AssociateDegree,SomeColl,SomeHS,20,Yes,No,36
17,v426638,691256,1662497660746,27,28,2,0,80627,32,Female,Asian,35000-49999,No,AssociateDegree,SomeColl,SomeHS,20,Yes,No,36
17,v426638,691256,1662497697010,28,29,6,1,36264,32,Female,Asian,35000-49999,No,AssociateDegree,SomeColl,SomeHS,20,Yes,No,36
17,v426638,691256,1662497757083,29,30,2,0,60073,32,Female,Asian,35000-49999,No,AssociateDegree,SomeColl,SomeHS,20,Yes,No,36
17,v426638,691256,1662497807812,30,31,1,0,50729,32,Female,Asian,35000-49999,No,AssociateDegree,SomeColl,SomeHS,20,Yes,No,36
17,v426638,691256,1662497848940,31,32,8,1,41128,32,Female,Asian,35000-49999,No,AssociateDegree,SomeColl,SomeHS,20,Yes,No,36
17,v426638,691256,1662497878905,32,33,5,1,29965,32,Female,Asian,35000-49999,No,AssociateDegree,SomeColl,SomeHS,20,Yes,No,36
17,v426638,691256,1662497927539,33,34,3,0,48634,32,Female,Asian,35000-49999,No,AssociateDegree,SomeColl,SomeHS,20,Yes,No,36
17,v426638,691256,1662498004436,34,35,3,1,76897,32,Female,Asian,35000-49999,No,AssociateDegree,SomeColl,SomeHS,20,Yes,No,36
17,v426638,691256,1662498056633,35,36,1,0,52197,32,Female,Asian,35000-49999,No,AssociateDegree,SomeColl,SomeHS,20,Yes,No,36
18,v602514,534684,1662496984896,0,1,5,1,41868,24,Male,Black or African American,Unanswered,Unanswered,BachelorDegree,SomeColl,MastersDegree,28,Yes,Unanswered,36
18,v602514,534684,1662497007259,1,2,1,1,22363,24,Male,Black or African American,Unanswered,Unanswered,BachelorDegree,SomeColl,MastersDegree,28,Yes,Unanswered,36
18,v602514,534684,1662497019559,2,3,7,1,12300,24,Male,Black or African American,Unanswered,Unanswered,BachelorDegree,SomeColl,MastersDegree,28,Yes,Unanswered,36
18,v602514,534684,1662497032424,3,4,4,1,12865,24,Male,Black or African American,Unanswered,Unanswered,BachelorDegree,SomeColl,MastersDegree,28,Yes,Unanswered,36
18,v602514,534684,1662497047567,4,5,3,1,15143,24,Male,Black or African American,Unanswered,Unanswered,BachelorDegree,SomeColl,MastersDegree,28,Yes,Unanswered,36
18,v602514,534684,1662497075181,5,6,1,1,27614,24,Male,Black or African American,Unanswered,Unanswered,BachelorDegree,SomeColl,MastersDegree,28,Yes,Unanswered,36
18,v602514,534684,1662497115313,6,7,6,1,40132,24,Male,Black or African American,Unanswered,Unanswered,BachelorDegree,SomeColl,MastersDegree,28,Yes,Unanswered,36
18,v602514,534684,1662497173731,7,8,1,1,58417,24,Male,Black or African American,Unanswered,Unanswered,BachelorDegree,SomeColl,MastersDegree,28,Yes,Unanswered,36
18,v602514,534684,1662497185356,8,9,8,1,11625,24,Male,Black or African American,Unanswered,Unanswered,BachelorDegree,SomeColl,MastersDegree,28,Yes,Unanswered,36
18,v602514,534684,1662497224409,9,10,4,1,39052,24,Male,Black or African American,Unanswered,Unanswered,BachelorDegree,SomeColl,MastersDegree,28,Yes,Unanswered,36
18,v602514,534684,1662497243564,10,11,5,1,19154,24,Male,Black or African American,Unanswered,Unanswered,BachelorDegree,SomeColl,MastersDegree,28,Yes,Unanswered,36
18,v602514,534684,1662497264127,11,12,6,1,20562,24,Male,Black or African American,Unanswered,Unanswered,BachelorDegree,SomeColl,MastersDegree,28,Yes,Unanswered,36
18,v602514,534684,1662497323188,12,13,2,1,59060,24,Male,Black or African American,Unanswered,Unanswered,BachelorDegree,SomeColl,MastersDegree,28,Yes,Unanswered,36
18,v602514,534684,1662497346243,13,14,1,1,23054,24,Male,Black or African American,Unanswered,Unanswered,BachelorDegree,SomeColl,MastersDegree,28,Yes,Unanswered,36
18,v602514,534684,1662497428469,14,15,2,1,82226,24,Male,Black or African American,Unanswered,Unanswered,BachelorDegree,SomeColl,MastersDegree,28,Yes,Unanswered,36
18,v602514,534684,1662497445572,15,16,4,1,17103,24,Male,Black or African American,Unanswered,Unanswered,BachelorDegree,SomeColl,MastersDegree,28,Yes,Unanswered,36
18,v602514,534684,1662497529955,16,17,6,1,84383,24,Male,Black or African American,Unanswered,Unanswered,BachelorDegree,SomeColl,MastersDegree,28,Yes,Unanswered,36
18,v602514,534684,1662497610237,17,18,5,0,80281,24,Male,Black or African American,Unanswered,Unanswered,BachelorDegree,SomeColl,MastersDegree,28,Yes,Unanswered,36
18,v602514,534684,1662497696764,18,19,3,1,86527,24,Male,Black or African American,Unanswered,Unanswered,BachelorDegree,SomeColl,MastersDegree,28,Yes,Unanswered,36
18,v602514,534684,1662497764252,19,20,8,1,67487,24,Male,Black or African American,Unanswered,Unanswered,BachelorDegree,SomeColl,MastersDegree,28,Yes,Unanswered,36
18,v602514,534684,1662497854018,20,21,8,1,89766,24,Male,Black or African American,Unanswered,Unanswered,BachelorDegree,SomeColl,MastersDegree,28,Yes,Unanswered,36
18,v602514,534684,1662497897533,21,22,7,1,43515,24,Male,Black or African American,Unanswered,Unanswered,BachelorDegree,SomeColl,MastersDegree,28,Yes,Unanswered,36
18,v602514,534684,1662497983805,22,23,6,1,86272,24,Male,Black or African American,Unanswered,Unanswered,BachelorDegree,SomeColl,MastersDegree,28,Yes,Unanswered,36
18,v602514,534684,1662498054290,23,24,3,1,70485,24,Male,Black or African American,Unanswered,Unanswered,BachelorDegree,SomeColl,MastersDegree,28,Yes,Unanswered,36
18,v602514,534684,1662498128492,24,25,7,1,74202,24,Male,Black or African American,Unanswered,Unanswered,BachelorDegree,SomeColl,MastersDegree,28,Yes,Unanswered,36
18,v602514,534684,1662498324908,25,26,2,1,196416,24,Male,Black or African American,Unanswered,Unanswered,BachelorDegree,SomeColl,MastersDegree,28,Yes,Unanswered,36
18,v602514,534684,1662498434450,26,27,3,0,109542,24,Male,Black or African American,Unanswered,Unanswered,BachelorDegree,SomeColl,MastersDegree,28,Yes,Unanswered,36
18,v602514,534684,1662498536247,27,28,5,1,101796,24,Male,Black or African American,Unanswered,Unanswered,BachelorDegree,SomeColl,MastersDegree,28,Yes,Unanswered,36
18,v602514,534684,1662498655557,28,29,6,1,119309,24,Male,Black or African American,Unanswered,Unanswered,BachelorDegree,SomeColl,MastersDegree,28,Yes,Unanswered,36
18,v602514,534684,1662498805912,29,30,5,1,150355,24,Male,Black or African American,Unanswered,Unanswered,BachelorDegree,SomeColl,MastersDegree,28,Yes,Unanswered,36
18,v602514,534684,1662498978910,30,31,4,1,172998,24,Male,Black or African American,Unanswered,Unanswered,BachelorDegree,SomeColl,MastersDegree,28,Yes,Unanswered,36
18,v602514,534684,1662499090887,31,32,1,0,111977,24,Male,Black or African American,Unanswered,Unanswered,BachelorDegree,SomeColl,MastersDegree,28,Yes,Unanswered,36
18,v602514,534684,1662499166787,32,33,5,1,75900,24,Male,Black or African American,Unanswered,Unanswered,BachelorDegree,SomeColl,MastersDegree,28,Yes,Unanswered,36
18,v602514,534684,1662499266984,33,34,2,0,100197,24,Male,Black or African American,Unanswered,Unanswered,BachelorDegree,SomeColl,MastersDegree,28,Yes,Unanswered,36
18,v602514,534684,1662499305749,34,35,3,1,38765,24,Male,Black or African American,Unanswered,Unanswered,BachelorDegree,SomeColl,MastersDegree,28,Yes,Unanswered,36
18,v602514,534684,1662499339482,35,36,5,0,33733,24,Male,Black or African American,Unanswered,Unanswered,BachelorDegree,SomeColl,MastersDegree,28,Yes,Unanswered,36
19,x057063,469034,1662497177309,0,1,5,1,17859,20,Female,White,0-5000,No,SomeColl,BachelorDegree,MastersDegree,28,Yes,Yes,36
19,x057063,469034,1662497190591,1,2,1,1,13282,20,Female,White,0-5000,No,SomeColl,BachelorDegree,MastersDegree,28,Yes,Yes,36
19,x057063,469034,1662497199039,2,3,7,1,8448,20,Female,White,0-5000,No,SomeColl,BachelorDegree,MastersDegree,28,Yes,Yes,36
19,x057063,469034,1662497203871,3,4,4,1,4831,20,Female,White,0-5000,No,SomeColl,BachelorDegree,MastersDegree,28,Yes,Yes,36
19,x057063,469034,1662497216064,4,5,3,1,12193,20,Female,White,0-5000,No,SomeColl,BachelorDegree,MastersDegree,28,Yes,Yes,36
19,x057063,469034,1662497227104,5,6,1,1,11039,20,Female,White,0-5000,No,SomeColl,BachelorDegree,MastersDegree,28,Yes,Yes,36
19,x057063,469034,1662497267185,6,7,6,1,40080,20,Female,White,0-5000,No,SomeColl,BachelorDegree,MastersDegree,28,Yes,Yes,36
19,x057063,469034,1662497305099,7,8,1,1,37914,20,Female,White,0-5000,No,SomeColl,BachelorDegree,MastersDegree,28,Yes,Yes,36
19,x057063,469034,1662497318025,8,9,8,1,12926,20,Female,White,0-5000,No,SomeColl,BachelorDegree,MastersDegree,28,Yes,Yes,36
19,x057063,469034,1662497359792,9,10,4,1,41766,20,Female,White,0-5000,No,SomeColl,BachelorDegree,MastersDegree,28,Yes,Yes,36
19,x057063,469034,1662497378545,10,11,5,1,18753,20,Female,White,0-5000,No,SomeColl,BachelorDegree,MastersDegree,28,Yes,Yes,36
19,x057063,469034,1662497389053,11,12,6,1,10508,20,Female,White,0-5000,No,SomeColl,BachelorDegree,MastersDegree,28,Yes,Yes,36
19,x057063,469034,1662497405721,12,13,7,0,16667,20,Female,White,0-5000,No,SomeColl,BachelorDegree,MastersDegree,28,Yes,Yes,36
19,x057063,469034,1662497446125,13,14,6,0,40403,20,Female,White,0-5000,No,SomeColl,BachelorDegree,MastersDegree,28,Yes,Yes,36
19,x057063,469034,1662497483548,14,15,2,1,37423,20,Female,White,0-5000,No,SomeColl,BachelorDegree,MastersDegree,28,Yes,Yes,36
19,x057063,469034,1662497503080,15,16,4,1,19532,20,Female,White,0-5000,No,SomeColl,BachelorDegree,MastersDegree,28,Yes,Yes,36
19,x057063,469034,1662497537760,16,17,6,1,34680,20,Female,White,0-5000,No,SomeColl,BachelorDegree,MastersDegree,28,Yes,Yes,36
19,x057063,469034,1662497591763,17,18,7,1,54003,20,Female,White,0-5000,No,SomeColl,BachelorDegree,MastersDegree,28,Yes,Yes,36
19,x057063,469034,1662497644575,18,19,3,1,52811,20,Female,White,0-5000,No,SomeColl,BachelorDegree,MastersDegree,28,Yes,Yes,36
19,x057063,469034,1662497687184,19,20,8,1,42608,20,Female,White,0-5000,No,SomeColl,BachelorDegree,MastersDegree,28,Yes,Yes,36
19,x057063,469034,1662497724335,20,21,4,0,37151,20,Female,White,0-5000,No,SomeColl,BachelorDegree,MastersDegree,28,Yes,Yes,36
19,x057063,469034,1662497775200,21,22,7,1,50865,20,Female,White,0-5000,No,SomeColl,BachelorDegree,MastersDegree,28,Yes,Yes,36
19,x057063,469034,1662497803738,22,23,2,0,28538,20,Female,White,0-5000,No,SomeColl,BachelorDegree,MastersDegree,28,Yes,Yes,36
19,x057063,469034,1662497851686,23,24,2,0,47948,20,Female,White,0-5000,No,SomeColl,BachelorDegree,MastersDegree,28,Yes,Yes,36
19,x057063,469034,1662497920138,24,25,7,1,68452,20,Female,White,0-5000,No,SomeColl,BachelorDegree,MastersDegree,28,Yes,Yes,36
19,x057063,469034,1662497981675,25,26,5,0,61537,20,Female,White,0-5000,No,SomeColl,BachelorDegree,MastersDegree,28,Yes,Yes,36
19,x057063,469034,1662498012619,26,27,7,1,30943,20,Female,White,0-5000,No,SomeColl,BachelorDegree,MastersDegree,28,Yes,Yes,36
19,x057063,469034,1662498050489,27,28,5,1,37870,20,Female,White,0-5000,No,SomeColl,BachelorDegree,MastersDegree,28,Yes,Yes,36
19,x057063,469034,1662498077749,28,29,2,0,27259,20,Female,White,0-5000,No,SomeColl,BachelorDegree,MastersDegree,28,Yes,Yes,36
19,x057063,469034,1662498146317,29,30,2,0,68567,20,Female,White,0-5000,No,SomeColl,BachelorDegree,MastersDegree,28,Yes,Yes,36
19,x057063,469034,1662498227211,30,31,6,0,80894,20,Female,White,0-5000,No,SomeColl,BachelorDegree,MastersDegree,28,Yes,Yes,36
19,x057063,469034,1662498304866,31,32,7,0,77655,20,Female,White,0-5000,No,SomeColl,BachelorDegree,MastersDegree,28,Yes,Yes,36
19,x057063,469034,1662498371804,32,33,8,0,66937,20,Female,White,0-5000,No,SomeColl,BachelorDegree,MastersDegree,28,Yes,Yes,36
19,x057063,469034,1662498456139,33,34,4,0,84334,20,Female,White,0-5000,No,SomeColl,BachelorDegree,MastersDegree,28,Yes,Yes,36
19,x057063,469034,1662498504887,34,35,1,0,48748,20,Female,White,0-5000,No,SomeColl,BachelorDegree,MastersDegree,28,Yes,Yes,36
19,x057063,469034,1662498514347,35,36,1,0,9460,20,Female,White,0-5000,No,SomeColl,BachelorDegree,MastersDegree,28,Yes,Yes,36
20,s689429,96166,1662497380646,0,1,5,1,65435,91,Female,White,50000-74999,No,BachelorDegree,SomeHS,AssociateDegree,12,Yes,No,36
20,s689429,96166,1662497425286,1,2,1,1,44640,91,Female,White,50000-74999,No,BachelorDegree,SomeHS,AssociateDegree,12,Yes,No,36
20,s689429,96166,1662497504940,2,3,7,1,79654,91,Female,White,50000-74999,No,BachelorDegree,SomeHS,AssociateDegree,12,Yes,No,36
20,s689429,96166,1662497554528,3,4,4,1,49588,91,Female,White,50000-74999,No,BachelorDegree,SomeHS,AssociateDegree,12,Yes,No,36
20,s689429,96166,1662497580514,4,5,2,0,25986,91,Female,White,50000-74999,No,BachelorDegree,SomeHS,AssociateDegree,12,Yes,No,36
20,s689429,96166,1662497602106,5,6,1,1,21591,91,Female,White,50000-74999,No,BachelorDegree,SomeHS,AssociateDegree,12,Yes,No,36
20,s689429,96166,1662497660323,6,7,6,1,58217,91,Female,White,50000-74999,No,BachelorDegree,SomeHS,AssociateDegree,12,Yes,No,36
20,s689429,96166,1662497708110,7,8,4,0,47787,91,Female,White,50000-74999,No,BachelorDegree,SomeHS,AssociateDegree,12,Yes,No,36
20,s689429,96166,1662497743539,8,9,8,1,35429,91,Female,White,50000-74999,No,BachelorDegree,SomeHS,AssociateDegree,12,Yes,No,36
20,s689429,96166,1662497935253,9,10,1,0,191713,91,Female,White,50000-74999,No,BachelorDegree,SomeHS,AssociateDegree,12,Yes,No,36
20,s689429,96166,1662498075997,10,11,6,0,140744,91,Female,White,50000-74999,No,BachelorDegree,SomeHS,AssociateDegree,12,Yes,No,36
20,s689429,96166,1662498163804,11,12,5,0,87806,91,Female,White,50000-74999,No,BachelorDegree,SomeHS,AssociateDegree,12,Yes,No,36
20,s689429,96166,1662498214892,12,13,6,0,51086,91,Female,White,50000-74999,No,BachelorDegree,SomeHS,AssociateDegree,12,Yes,No,36
20,s689429,96166,1662498240213,13,14,8,0,25321,91,Female,White,50000-74999,No,BachelorDegree,SomeHS,AssociateDegree,12,Yes,No,36
20,s689429,96166,1662498339402,14,15,6,0,99189,91,Female,White,50000-74999,No,BachelorDegree,SomeHS,AssociateDegree,12,Yes,No,36
20,s689429,96166,1662498388056,15,16,4,1,48654,91,Female,White,50000-74999,No,BachelorDegree,SomeHS,AssociateDegree,12,Yes,No,36
20,s689429,96166,1662498456213,16,17,3,0,68157,91,Female,White,50000-74999,No,BachelorDegree,SomeHS,AssociateDegree,12,Yes,No,36
20,s689429,96166,1662498528619,17,18,7,1,72406,91,Female,White,50000-74999,No,BachelorDegree,SomeHS,AssociateDegree,12,Yes,No,36
20,s689429,96166,1662498550428,18,19,3,1,21809,91,Female,White,50000-74999,No,BachelorDegree,SomeHS,AssociateDegree,12,Yes,No,36
20,s689429,96166,1662498641594,19,20,8,1,91166,91,Female,White,50000-74999,No,BachelorDegree,SomeHS,AssociateDegree,12,Yes,No,36
20,s689429,96166,1662498705275,20,21,5,0,63681,91,Female,White,50000-74999,No,BachelorDegree,SomeHS,AssociateDegree,12,Yes,No,36
20,s689429,96166,1662498770755,21,22,2,0,65480,91,Female,White,50000-74999,No,BachelorDegree,SomeHS,AssociateDegree,12,Yes,No,36
20,s689429,96166,1662498835775,22,23,4,0,65020,91,Female,White,50000-74999,No,BachelorDegree,SomeHS,AssociateDegree,12,Yes,No,36
20,s689429,96166,1662498948143,23,24,2,0,112368,91,Female,White,50000-74999,No,BachelorDegree,SomeHS,AssociateDegree,12,Yes,No,36
20,s689429,96166,1662499042510,24,25,2,0,94367,91,Female,White,50000-74999,No,BachelorDegree,SomeHS,AssociateDegree,12,Yes,No,36
20,s689429,96166,1662499073715,25,26,3,0,31205,91,Female,White,50000-74999,No,BachelorDegree,SomeHS,AssociateDegree,12,Yes,No,36
20,s689429,96166,1662499116730,26,27,4,0,43013,91,Female,White,50000-74999,No,BachelorDegree,SomeHS,AssociateDegree,12,Yes,No,36
20,s689429,96166,1662499269187,27,28,8,0,152457,91,Female,White,50000-74999,No,BachelorDegree,SomeHS,AssociateDegree,12,Yes,No,36
20,s689429,96166,1662499314255,28,29,3,0,45068,91,Female,White,50000-74999,No,BachelorDegree,SomeHS,AssociateDegree,12,Yes,No,36
20,s689429,96166,1662499390918,29,30,6,0,76663,91,Female,White,50000-74999,No,BachelorDegree,SomeHS,AssociateDegree,12,Yes,No,36
20,s689429,96166,1662499433868,30,31,3,0,42950,91,Female,White,50000-74999,No,BachelorDegree,SomeHS,AssociateDegree,12,Yes,No,36
20,s689429,96166,1662499476981,31,32,2,0,43113,91,Female,White,50000-74999,No,BachelorDegree,SomeHS,AssociateDegree,12,Yes,No,36
20,s689429,96166,1662499544478,32,33,8,0,67496,91,Female,White,50000-74999,No,BachelorDegree,SomeHS,AssociateDegree,12,Yes,No,36
20,s689429,96166,1662499605112,33,34,8,0,60634,91,Female,White,50000-74999,No,BachelorDegree,SomeHS,AssociateDegree,12,Yes,No,36
20,s689429,96166,1662499643939,34,35,6,0,38826,91,Female,White,50000-74999,No,BachelorDegree,SomeHS,AssociateDegree,12,Yes,No,36
20,s689429,96166,1662499710003,35,36,5,0,66064,91,Female,White,50000-74999,No,BachelorDegree,SomeHS,AssociateDegree,12,Yes,No,36
21,d487302,183078,1662497195990,0,1,5,1,28722,64,Female,White,75000-99999,Yes,BachelorDegree,BachelorDegree,BachelorDegree,24,Yes,Yes,34
21,d487302,183078,1662497212578,1,2,1,1,16587,64,Female,White,75000-99999,Yes,BachelorDegree,BachelorDegree,BachelorDegree,24,Yes,Yes,34
21,d487302,183078,1662497271853,2,3,7,1,59275,64,Female,White,75000-99999,Yes,BachelorDegree,BachelorDegree,BachelorDegree,24,Yes,Yes,34
21,d487302,183078,1662497288956,3,4,4,1,17103,64,Female,White,75000-99999,Yes,BachelorDegree,BachelorDegree,BachelorDegree,24,Yes,Yes,34
21,d487302,183078,1662497337558,4,5,3,1,48602,64,Female,White,75000-99999,Yes,BachelorDegree,BachelorDegree,BachelorDegree,24,Yes,Yes,34
21,d487302,183078,1662497360271,5,6,1,1,22713,64,Female,White,75000-99999,Yes,BachelorDegree,BachelorDegree,BachelorDegree,24,Yes,Yes,34
21,d487302,183078,1662497380930,6,7,6,1,20658,64,Female,White,75000-99999,Yes,BachelorDegree,BachelorDegree,BachelorDegree,24,Yes,Yes,34
21,d487302,183078,1662497406201,7,8,1,1,25271,64,Female,White,75000-99999,Yes,BachelorDegree,BachelorDegree,BachelorDegree,24,Yes,Yes,34
21,d487302,183078,1662497425059,8,9,8,1,18858,64,Female,White,75000-99999,Yes,BachelorDegree,BachelorDegree,BachelorDegree,24,Yes,Yes,34
21,d487302,183078,1662497455003,9,10,4,1,29944,64,Female,White,75000-99999,Yes,BachelorDegree,BachelorDegree,BachelorDegree,24,Yes,Yes,34
21,d487302,183078,1662497484413,10,11,5,1,29410,64,Female,White,75000-99999,Yes,BachelorDegree,BachelorDegree,BachelorDegree,24,Yes,Yes,34
21,d487302,183078,1662497499356,11,12,6,1,14943,64,Female,White,75000-99999,Yes,BachelorDegree,BachelorDegree,BachelorDegree,24,Yes,Yes,34
21,d487302,183078,1662497516846,12,13,1,0,17490,64,Female,White,75000-99999,Yes,BachelorDegree,BachelorDegree,BachelorDegree,24,Yes,Yes,34
21,d487302,183078,1662497544746,13,14,1,1,27900,64,Female,White,75000-99999,Yes,BachelorDegree,BachelorDegree,BachelorDegree,24,Yes,Yes,34
21,d487302,183078,1662497576364,14,15,2,1,31618,64,Female,White,75000-99999,Yes,BachelorDegree,BachelorDegree,BachelorDegree,24,Yes,Yes,34
21,d487302,183078,1662497592607,15,16,4,1,16242,64,Female,White,75000-99999,Yes,BachelorDegree,BachelorDegree,BachelorDegree,24,Yes,Yes,34
21,d487302,183078,1662497611950,16,17,6,1,19343,64,Female,White,75000-99999,Yes,BachelorDegree,BachelorDegree,BachelorDegree,24,Yes,Yes,34
21,d487302,183078,1662497643978,17,18,7,1,32028,64,Female,White,75000-99999,Yes,BachelorDegree,BachelorDegree,BachelorDegree,24,Yes,Yes,34
21,d487302,183078,1662497735287,18,19,3,1,91309,64,Female,White,75000-99999,Yes,BachelorDegree,BachelorDegree,BachelorDegree,24,Yes,Yes,34
21,d487302,183078,1662497872019,19,20,8,1,136732,64,Female,White,75000-99999,Yes,BachelorDegree,BachelorDegree,BachelorDegree,24,Yes,Yes,34
21,d487302,183078,1662497986639,20,21,8,1,114620,64,Female,White,75000-99999,Yes,BachelorDegree,BachelorDegree,BachelorDegree,24,Yes,Yes,34
21,d487302,183078,1662498058496,21,22,8,0,71856,64,Female,White,75000-99999,Yes,BachelorDegree,BachelorDegree,BachelorDegree,24,Yes,Yes,34
21,d487302,183078,1662498151897,22,23,6,1,93401,64,Female,White,75000-99999,Yes,BachelorDegree,BachelorDegree,BachelorDegree,24,Yes,Yes,34
21,d487302,183078,1662498344085,23,24,3,1,192187,64,Female,White,75000-99999,Yes,BachelorDegree,BachelorDegree,BachelorDegree,24,Yes,Yes,34
21,d487302,183078,1662498447073,24,25,7,1,102987,64,Female,White,75000-99999,Yes,BachelorDegree,BachelorDegree,BachelorDegree,24,Yes,Yes,34
21,d487302,183078,1662498579873,25,26,2,1,132800,64,Female,White,75000-99999,Yes,BachelorDegree,BachelorDegree,BachelorDegree,24,Yes,Yes,34
21,d487302,183078,1662498673219,26,27,7,1,93345,64,Female,White,75000-99999,Yes,BachelorDegree,BachelorDegree,BachelorDegree,24,Yes,Yes,34
21,d487302,183078,1662498830777,27,28,3,0,157557,64,Female,White,75000-99999,Yes,BachelorDegree,BachelorDegree,BachelorDegree,24,Yes,Yes,34
21,d487302,183078,1662498988113,28,29,7,0,157336,64,Female,White,75000-99999,Yes,BachelorDegree,BachelorDegree,BachelorDegree,24,Yes,Yes,34
21,d487302,183078,1662499100975,29,30,5,1,112861,64,Female,White,75000-99999,Yes,BachelorDegree,BachelorDegree,BachelorDegree,24,Yes,Yes,34
21,d487302,183078,1662499264767,30,31,5,0,163792,64,Female,White,75000-99999,Yes,BachelorDegree,BachelorDegree,BachelorDegree,24,Yes,Yes,34
21,d487302,183078,1662499318314,31,32,4,0,53547,64,Female,White,75000-99999,Yes,BachelorDegree,BachelorDegree,BachelorDegree,24,Yes,Yes,34
